transcript,confidence,languageCode,channelTag,Participant,Trial,preciseStartTime,preciseEndTime,Picture_Identity,Picture_Label,Task_Side,Response_Time_in_PsychoPy,Response_Finish_in_PsychoPy,Stim_Onset,Block,Stim_Offset_Fix_Onset,Fix_Offset,Task,Picture_Number,First_Congruency,FrameRate,V17,Synonyms,Congruency,End_recording,Block_Bias,Task_Side_Bias
lawnmower,0.9486762,en-us,NA,1,1,1.72,2.18,lawnmower,plate,-7,1.7136274,0,74.2097432,1,76.5405937,51.821412,Predictive Locations,obj235,Even_Split,59.95818516,NA,"mower, cutter, trimmer, lawnmower, plate",Incongruent,80.7937413,NA,Incongruent
picture,0.98762906,en-us,NA,1,2,1.97,2.115,picture,present,-7,1.1944157,1.2263148,80.7996938,1,82.8954934,80.7937413,Predictive Locations,obj315,Even_Split,59.95818516,NA,"painting, drawing, boat, ship, decor, art, oil panting, picture, present",Incongruent,86.648249,NA,Incongruent
shell,0.9705325,en-us,NA,1,3,1.185,1.35,shell,shell,-7,1.0667935,0,86.6540729,1,88.7505854,86.648249,Predictive Locations,obj390,Even_Split,59.95818516,NA,"seashell, shell",Congruent,89.900759,NA,Incongruent
brush,0.9743147,en-us,NA,1,4,NA,NA,brush,brush,7,1.1574556,0,89.9063911,1,92.0025159,89.900759,Predictive Locations,obj191,Even_Split,59.95818516,NA,"hair brush, comb, brush",Congruent,93.6536539,NA,Congruent
banana,0.98762906,en-us,NA,1,5,1.16,1.55,banana,banana,-7,1.1511213,0,93.6593798,1,95.7554019,93.6536539,Predictive Locations,obj026,Even_Split,59.95818516,NA,"fruit, banana",Congruent,97.1063113,NA,Incongruent
nose,0.9792424,en-us,NA,1,6,1.09,1.305,nose,lock,-7,1.0400386,0,97.111991,1,99.2080673,97.1063113,Predictive Locations,obj283,Even_Split,59.95818516,NA,"snout, nostril, nostrils, sniff, nose, lock",Incongruent,100.0585446,NA,Incongruent
stove,0.98762906,en-us,NA,1,7,1.38,1.605,stove,stove,7,1.2064564,0,100.0641911,1,102.1606407,100.0585446,Predictive Locations,obj426,Even_Split,59.95818516,NA,"oven, boiler, cooker, furnace, stove",Congruent,104.3118504,NA,Congruent
airplane,0.98762906,en-us,NA,1,8,NA,NA,airplane,airplane,7,0.9946881,0,104.3176783,1,106.4136088,104.3118504,Predictive Locations,obj003,Even_Split,59.95818516,NA,"jet, plane, jetplane, airliner, aircraft, airplane",Congruent,108.1648648,NA,Congruent
octopus,0.98762906,en-us,NA,1,9,1.26,1.505,octopus,octopus,7,0.8887229,1.0421265,108.1705881,1,110.266604,108.1648648,Predictive Locations,obj286,Even_Split,59.95818516,NA,"tentacles, squid, giant squid, octopus",Congruent,111.1171337,NA,Congruent
necklace,0.9573041,en-us,NA,1,10,1.195,1.735,necklace,bricks,-7,1.1850308,0,111.1226885,1,113.2188627,111.1171337,Predictive Locations,obj279,Even_Split,59.95818516,NA,"choker, jewelry, beads, pearls, pearl necklace, necklace, bricks",Incongruent,115.2704686,NA,Incongruent
jacket,0.9764048,en-us,NA,1,11,2.445,2.61,shirt,handcuffs,7,1.3742001,0,115.2762223,1,117.3727594,115.2704686,Predictive Locations,obj392,Even_Split,59.95818516,NA,"long sleeve shirt, button down shirt, long sleeves, dress shirt, _jacket, shirt, handcuffs",Incongruent,120.9246912,NA,Congruent
onion,0.98762906,en-us,NA,1,12,1.45,1.765,onion,balloon,-7,1.4330941,0,120.930573,1,123.0264448,120.9246912,Predictive Locations,obj287,Even_Split,59.95818516,NA,"garlic, shallot, scallion, onion, balloon",Incongruent,125.4948643,NA,Incongruent
leg,0.74200916,en-us,NA,1,13,0.915,1.13,leg,leg,-7,0.9001321,1.3135485,125.500922,1,127.5966029,125.4948643,Predictive Locations,obj237,Even_Split,59.95818516,NA,"calf, shin, foreleg, knee, foot, leg",Congruent,128.3470483,NA,Incongruent
lettuce,0.98762906,en-us,NA,1,14,NA,NA,lettuce,lettuce,7,0.8008565,0.9957674,128.3526849,1,130.4488175,128.3470483,Predictive Locations,obj241,Even_Split,59.95818516,NA,"cabbage, spinach, romaine, kale, leaf, leaves, flower, lettuce",Congruent,132.4001955,NA,Congruent
woman,0.95925975,en-us,NA,1,15,1.3,1.6,woman,safe,-7,1.2845931,0,132.4060276,1,134.5022525,132.4001955,Predictive Locations,obj515,Even_Split,59.95818516,NA,"female, woman, safe",Incongruent,135.7527576,NA,Incongruent
rollerskate,0.97481394,en-us,NA,1,16,2.435,2.705,rollerskate,hanger,-7,2.4110996,0,135.7584441,1,138.7886641,135.7527576,Predictive Locations,obj361,Even_Split,59.95818516,NA,"rollerblade, rollerblades, rollerskates, shoe, rollerskate, hanger",Incongruent,142.1410338,NA,Incongruent
peanut,0.98762906,en-us,NA,1,17,1.225,1.48,peanut,policeman,-7,1.1731897,0,142.147112,1,144.2427672,142.1410338,Predictive Locations,obj306,Even_Split,59.95818516,NA,"nut, kernel, cashew, almond, pistachio, walnut, hazelnut, peanut, policeman",Incongruent,144.9932334,NA,Incongruent
snail,0.9653852,en-us,NA,1,18,1.34,1.64,snail,backpack,-7,1.2488053,0,144.9988335,1,147.0949846,144.9932334,Predictive Locations,obj408,Even_Split,59.95818516,NA,"mollusk, slug, snail, backpack",Incongruent,148.6460435,NA,Incongruent
salt shaker,0.9876291,en-us,NA,1,19,1.49,1.595,salt,salt,7,1.475594,0,148.6517748,1,150.7478026,148.6460435,Predictive Locations,obj374,Even_Split,59.95818516,NA,"shaker, pepper, salt shaker, pepper shaker, condiment, sugar, salt",Congruent,153.4997868,NA,Congruent
hair,0.91416043,en-us,NA,1,20,1.775,2.005,hair,hair,7,1.7044665,0,153.505724,1,155.8350344,153.4997868,Predictive Locations,obj190,Even_Split,59.95818516,NA,"woman, long hair, curly hair, hair",Congruent,157.4861651,NA,Congruent
roof,0.9820179,en-us,NA,1,21,1.52,1.705,roof,roof,7,1.5081268,0,157.4918877,1,159.6213016,157.4861651,Predictive Locations,obj363,Even_Split,59.95818516,NA,"house, ceiling, shingles, roof",Congruent,161.4726063,NA,Congruent
swan,0.97661686,en-us,NA,1,22,1.165,1.47,swan,swan,7,1.099179,0,161.478519,1,163.5743654,161.4726063,Predictive Locations,obj432,Even_Split,59.95818516,NA,"goose, duck, crane, pelican, swan",Congruent,164.3247905,NA,Congruent
butter,0.98762906,en-us,NA,1,23,1.665,1.925,butter,butter,7,1.662193,0,164.3304453,1,166.6100229,164.3247905,Predictive Locations,obj066,Even_Split,59.95818516,NA,"plate, oil, margarine, spread, butter",Congruent,168.7615549,NA,Congruent
Mountain,0.8897108,en-us,NA,1,24,1.17,1.595,mountain,drill,-7,1.1780642,0,168.7673755,1,170.8633367,168.7615549,Predictive Locations,obj272,Even_Split,59.95818516,NA,"peak, apex, ridge, Matterhorn, mountain, drill",Incongruent,172.2309143,NA,Incongruent
shovel,0.98762906,en-us,NA,1,25,1.03,1.33,shovel,shovel,-7,0.9077091,0,172.2365938,1,174.3493175,172.2309143,Predictive Locations,obj395,Even_Split,59.95818516,NA,"tool, shovel",Congruent,175.0997535,NA,Incongruent
Cannon,0.9819553,en-us,NA,1,26,1.48,1.83,cannon,eagle,7,1.4163454,0,175.1053488,1,177.2015474,175.0997535,Predictive Locations,obj077,Even_Split,59.95818516,NA,"howitzer, artillery, cannon, eagle",Incongruent,180.0536031,NA,Congruent
glasses,0.98762906,en-us,NA,1,27,1.285,1.715,glasses,glasses,7,1.2641313,0,180.0596009,1,182.1553538,180.0536031,Predictive Locations,obj181,Even_Split,59.95818516,NA, glasses,Congruent,183.9065723,NA,Congruent
paintbrush,0.98762906,en-us,NA,1,28,0.99,1.585,paintbrush,paintbrush,-7,0.7519714,0.7758702,183.9123234,1,186.0085939,183.9065723,Predictive Locations,obj293,Even_Split,59.95818516,NA,"brush, bristle, paintbrush",Congruent,186.8588592,NA,Incongruent
pumpkin,0.9869452,en-us,NA,1,29,1.095,1.54,pumpkin,truck,-7,1.0426009,0,186.8654224,1,188.9772816,186.8588592,Predictive Locations,obj339,Even_Split,59.95818516,NA,"squash, fruit, tomato, onion, pepper, pumpkin, truck",Incongruent,189.8277886,NA,Incongruent
NA,NA,NA,NA,1,30,NA,NA,porcupine,carrot,7,1.5935136,0,189.8334121,1,192.0463281,189.8277886,Predictive Locations,obj334,Even_Split,59.95818516,NA,"hedgehog, possum, echidna, porcupine, carrot",Incongruent,192.9969224,NA,Congruent
mirror,0.9935462,en-us,NA,1,31,1.15,1.535,mirror,rabbit,-7,0.1730672,0.3060386,193.0026201,1,195.0994143,192.9969224,Predictive Locations,obj263,Even_Split,59.95818516,NA,"reflection, mirror, rabbit",Incongruent,196.1493194,NA,Incongruent
basket,0.98762906,en-us,NA,1,32,1.03,1.485,basket,snake,7,1.0131103,0,196.154804,1,198.2511333,196.1493194,Predictive Locations,obj031,Even_Split,59.95818516,NA,"box, bag, crate, picnic basket, basket, snake",Incongruent,199.1016277,NA,Congruent
rake,0.9540891,en-us,NA,1,33,1,1.155,rake,rake,7,0.1763929,0.2083219,199.1073042,1,201.2203291,199.1016277,Predictive Locations,obj349,Even_Split,59.95818516,NA,"trident, shovel, brush, stick, pole, rake",Congruent,201.9705231,NA,Congruent
nurse,0.92428106,en-us,NA,1,34,1.44,1.745,nurse,nurse,7,1.4447647,0,201.9771618,1,204.0723919,201.9705231,Predictive Locations,obj284,Even_Split,59.95818516,NA,"woman, female, adult, nurse",Congruent,205.9235362,NA,Congruent
bride,0.98762906,en-us,NA,1,35,1.505,1.75,bride,bride,7,1.4958208,0,205.9292474,1,208.0420117,205.9235362,Predictive Locations,obj061,Even_Split,59.95818516,NA,"wedding, woman, dress, gown, mate, newlywed, spouse, wife, bride",Congruent,210.1934937,NA,Congruent
lipstick,0.98762906,en-us,NA,1,36,1.315,1.59,lipstick,squirrel,-7,1.143956,0,210.1993511,1,212.2952921,210.1934937,Predictive Locations,obj248,Even_Split,59.95818516,NA," lipstick, squirrel",Incongruent,213.5460868,NA,Incongruent
fireman,0.9821843,en-us,NA,1,37,1.25,1.745,fireman,fireman,7,1.2489315,0,213.5518087,1,215.6543793,213.5460868,Predictive Locations,obj155,Even_Split,59.95818516,NA,"man, firefighter, fireman",Congruent,217.4991255,NA,Congruent
peas,0.96766245,en-us,NA,1,38,2.175,2.38,peas,ladybug,7,2.1289687,0,217.5048315,1,220.2514042,217.4991255,Predictive Locations,obj308,Even_Split,59.95818516,NA,"beans, peapod, pea, green beans, peas, ladybug",Incongruent,222.4195905,NA,Congruent
cross,0.9729748,en-us,NA,1,39,1.16,1.31,cross,sled,-7,1.0589899,0,222.4254643,1,224.5213002,222.4195905,Predictive Locations,obj116,Even_Split,59.95818516,NA,"Christianity, cross, sled",Incongruent,225.2717875,NA,Incongruent
stoplight,0.9843848,en-us,NA,1,40,1.42,1.865,stoplight,stoplight,7,0.9636314,1.0035064,225.2774285,1,227.3735065,225.2717875,Predictive Locations,obj466,Even_Split,59.95818516,NA,"light, traffic light, signal, traffic signal, traffic signals, stoplight",Congruent,229.5251225,NA,Congruent
grapes,0.98762906,en-us,NA,1,41,0.865,1.955,grapes,windmill,-7,1.4860465,0,229.5310478,1,231.6434966,229.5251225,Predictive Locations,obj186,Even_Split,59.95818516,NA,"fruit, grapes, windmill",Incongruent,233.9117766,NA,Incongruent
eye,0.7883375,en-us,NA,1,42,0.91,1.17,eye,eye,7,0.5267601,0.6470826,233.9175667,1,236.0135366,233.9117766,Predictive Locations,obj148,Even_Split,59.95818516,NA,"eyeball, pupil, iris, eyelash, eyelashes, vision, eye",Congruent,236.7639785,NA,Congruent
worm,0.98762906,en-us,NA,1,43,1.57,1.825,worm,football,-7,1.5608402,0,236.7694434,1,238.9505703,236.7639785,Predictive Locations,obj516,Even_Split,59.95818516,NA,"larva, bug, insect, crawler, centipede, maggot, earthworm, slither, worm, football",Incongruent,241.3008101,NA,Incongruent
lamp,0.97996175,en-us,NA,1,44,1.28,1.505,lamp,tripod,7,1.2794412,0,241.3065972,1,243.4192496,241.3008101,Predictive Locations,obj234,Even_Split,59.95818516,NA,"light, lantern, lamp, tripod",Incongruent,244.2697671,NA,Congruent
clock,0.9847951,en-us,NA,1,45,1.385,1.565,clock,clock,7,1.2928436,0,244.275433,1,246.3715776,244.2697671,Predictive Locations,obj099,Even_Split,59.95818516,NA,"time, alarm, watch, clock",Congruent,247.4221702,NA,Congruent
piggybank,0.8484782,en-us,NA,1,46,1.58,2.03,piggybank,saxophone,-7,1.5494949,0,247.427967,1,249.5912151,247.4221702,Predictive Locations,obj318,Even_Split,59.95818516,NA,"pig, savings, decoration, deposit, piggybank, saxophone",Incongruent,252.2425919,NA,Incongruent
belt,0.9660759,en-us,NA,1,47,1.04,1.185,belt,belt,7,1.0204142,1.2390421,252.2486141,1,254.3443766,252.2425919,Predictive Locations,obj041,Even_Split,59.95818516,NA, belt,Congruent,255.0947889,NA,Congruent
Snowman,0.98762906,en-us,NA,1,48,1.085,1.61,snowman,tweezers,7,1.0589748,0,255.1003967,1,257.2132667,255.0947889,Predictive Locations,obj410,Even_Split,59.95818516,NA,"snow, snowwoman, snowman, tweezers",Incongruent,258.3640041,NA,Congruent
hot,0.73868406,en-us,NA,1,49,0.985,1.13,hat,hat,7,0.9018919,1.1980811,258.3697592,1,260.4657767,258.3640041,Predictive Locations,obj199,Even_Split,59.95818516,NA,"fedora, hat",Congruent,261.2161967,NA,Congruent
flower,0.96866316,en-us,NA,1,50,1.49,1.865,rose,scarf,-7,1.3859088,0,261.2218424,1,263.3179395,261.2161967,Predictive Locations,obj366,Even_Split,59.95818516,NA,"flower, tulip, orchid, poppy, rose, scarf",Incongruent,265.9865636,NA,Incongruent
unicorn,0.98762906,en-us,NA,1,51,1.09,1.875,unicorn,barrel,7,1.0886929,0,265.9927194,1,268.0882738,265.9865636,Predictive Locations,obj480,Even_Split,59.95818516,NA," unicorn, barrel",Incongruent,270.740174,NA,Congruent
scale,0.98762906,en-us,NA,1,52,1.285,1.61,scale,scale,7,0.6527281,0.7730513,270.745999,1,272.8587053,270.740174,Predictive Locations,obj378,Even_Split,59.95818516,NA,"weigh, balance, weight, scale",Congruent,273.9092956,NA,Congruent
jar,0.97768855,en-us,NA,1,53,1.345,1.645,jar,cow,-7,1.2857547,0,273.9150689,1,276.0116537,273.9092956,Predictive Locations,obj221,Even_Split,59.95818516,NA,"jug, vase, vessel, bottle, jar, cow",Incongruent,277.2618859,NA,Incongruent
turkey,0.98762906,en-us,NA,1,54,1.205,1.62,turkey,wood,7,1.0053452,1.0279516,277.267966,1,279.3637167,277.2618859,Predictive Locations,obj475,Even_Split,59.95818516,NA,"bird, goose, ham, rooster, chicken, poultry, turkey, wood",Incongruent,280.7145302,NA,Congruent
desk,0.98762906,en-us,NA,1,55,1.38,1.55,desk,ruler,7,1.3623706,0,280.7201122,1,282.8332781,280.7145302,Predictive Locations,obj124,Even_Split,59.95818516,NA,"cabinet, table, desk, ruler",Incongruent,284.2839247,NA,Congruent
penguin,0.98762906,en-us,NA,1,56,1.14,1.52,penguin,boy,-7,1.1041232,0,284.2897149,1,286.3857353,284.2839247,Predictive Locations,obj313,Even_Split,59.95818516,NA,"puffin, bird, penguin, boy",Incongruent,287.2362613,NA,Incongruent
map,0.9743094,en-us,NA,1,57,1.18,1.415,map,shark,-7,1.1831163,0,287.2420633,1,289.3380727,287.2362613,Predictive Locations,obj257,Even_Split,59.95818516,NA,"America, Uniteds States, North America, map, shark",Incongruent,290.0884607,NA,Incongruent
pot,0.9774967,en-us,NA,1,58,1.59,1.755,pot,pot,7,1.5197364,0,290.0942136,1,292.2402485,290.0884607,Predictive Locations,obj335,Even_Split,59.95818516,NA,"bowl, bucket, kettle, pan, container, canister, pot",Congruent,293.9914665,NA,Congruent
thumb,0.94928306,en-us,NA,1,59,1.43,1.715,thumb,thumb,-7,1.3335026,0,293.9973735,1,296.0957261,293.9914665,Predictive Locations,obj452,Even_Split,59.95818516,NA,"finger, hang, left hand, extension, thumbs up, thumb",Congruent,297.9445172,NA,Incongruent
Soldier,0.9938145,en-us,NA,1,60,1.78,2.23,soldier,hoof,-7,1.6675199,0,297.9505244,1,300.2297957,297.9445172,Predictive Locations,obj413,Even_Split,59.95818516,NA,"fighter, guard, officer, trooper, army, marine, soldier, hoof",Incongruent,303.5821785,NA,Incongruent
zebra,0.9938078,en-us,NA,1,61,1.095,1.29,zebra,zebra,7,0.824141,1.4302254,303.5881863,1,305.6840023,303.5821785,Predictive Locations,obj519,Even_Split,59.95818516,NA,"horse, zebra",Congruent,306.4343763,NA,Congruent
trashcan,0.66130155,en-us,NA,1,62,1.075,1.61,trashcan,trashcan,7,1.0127116,0,306.440058,1,308.5362009,306.4343763,Predictive Locations,obj468,Even_Split,59.95818516,NA,"trash, garbage, garbage can, bin, garbage bin, trashcan",Congruent,309.58682,NA,Congruent
Queen,0.9855062,en-us,NA,1,63,1.315,1.61,queen,skunk,7,1.0108552,1.025528,309.5925531,1,311.6885278,309.58682,Predictive Locations,obj342,Even_Split,59.95818516,NA,"regal, crown, throne, emperor, monarch, king, queen, skunk",Incongruent,313.0394302,NA,Congruent
tree,0.8464209,en-us,NA,1,64,0.83,1.1,tree,tree,7,0.7397257,1.1866137,313.045015,1,315.1411266,313.0394302,Predictive Locations,obj469,Even_Split,59.95818516,NA,"oak tree, tree",Congruent,315.8916486,NA,Congruent
stethoscope,0.9798577,en-us,NA,1,65,NA,NA,stethoscope,stethoscope,-7,1.3555841,0,315.8972352,1,317.9933948,315.8916486,Predictive Locations,obj423,Even_Split,59.95818516,NA,"instrument, stethoscope",Congruent,319.8446946,NA,Incongruent
cage,0.96392167,en-us,NA,1,66,1.235,1.75,cage,cage,7,1.2389145,0,319.8504067,1,321.9594563,319.8446946,Predictive Locations,obj070,Even_Split,59.95818516,NA,"crate, pen, empty, cage",Congruent,323.1972929,NA,Congruent
goat,0.9803672,en-us,NA,1,67,0.89,1.08,goat,goat,7,0.8612954,1.1870037,330.9076162,2,333.0049628,323.1972929,Predictive Locations,obj184,Even_Split,59.95818516,NA,"sheep, ram, lamb, goat",Congruent,333.7554137,NA,Congruent
cloud,0.98762906,en-us,NA,1,68,1,1.245,cloud,bow,-7,0.8104212,0.8339674,333.7610261,2,335.8571592,333.7554137,Predictive Locations,obj101,Even_Split,59.95818516,NA," cloud, bow",Incongruent,336.607592,NA,Incongruent
steering wheel,0.9958763,en-us,NA,1,69,1.22,1.785,steeringwheel,steeringwheel,-7,1.1198179,1.1430748,336.6130889,2,338.7093645,336.607592,Predictive Locations,obj422,Even_Split,59.95818516,NA,"wheel, steeringwheel",Congruent,340.6607359,NA,Incongruent
fountain,0.9938145,en-us,NA,1,70,1.245,1.63,fountain,pants,-7,1.2051842,0,340.6663829,2,342.7630854,340.6607359,Predictive Locations,obj169,Even_Split,59.95818516,NA,"water, stream, fountain, pants",Incongruent,344.213473,NA,Incongruent
button,0.92236507,en-us,NA,1,71,1.57,1.725,button,button,7,1.3946906,0,344.2190915,2,346.3266897,344.213473,Predictive Locations,obj068,Even_Split,59.95818516,NA, button,Congruent,347.8663018,NA,Congruent
fishing pole,0.9533744,en-us,NA,1,72,1.07,1.615,fishingpole,fishingpole,7,1.0676264,0,347.8720015,2,349.9790407,347.8663018,Predictive Locations,obj158,Even_Split,59.95818516,NA,"bait, fishing rod, fishing line, rod, hook, casting rod, casting line, fly rod, fishingpole",Congruent,351.3189505,NA,Congruent
binoculars,0.98762906,en-us,NA,1,73,1.835,2.415,binoculars,mop,-7,1.8168634,0,351.3246167,2,353.7543105,351.3189505,Predictive Locations,obj044,Even_Split,59.95818516,NA,"telescope, binoculars, mop",Incongruent,356.8065201,NA,Incongruent
scorpion,0.98762906,en-us,NA,1,74,1.275,1.745,scorpion,lighthouse,-7,1.1605859,0,356.8124601,2,358.9082887,356.8065201,Predictive Locations,obj381,Even_Split,59.95818516,NA,"lobster, arachnid, crustacean, crab, crawfish, scorpion, lighthouse",Incongruent,361.0597982,NA,Incongruent
kite,0.98762906,en-us,NA,1,75,0.71,0.97,kite,kite,7,0.7153735,1.0395176,361.0655692,2,363.1615423,361.0597982,Predictive Locations,obj227,Even_Split,59.95818516,NA, kite,Congruent,363.911983,NA,Congruent
coat,0.9606378,en-us,NA,1,76,1.835,1.99,coat,coat,7,1.6184462,0,363.9175227,2,366.1471757,363.911983,Predictive Locations,obj103,Even_Split,59.95818516,NA,"jacket, cloak, overcoat, coat",Congruent,367.4980934,NA,Congruent
bus,0.9328593,en-us,NA,1,77,1.24,1.58,bus,bus,7,1.2190568,0,367.503771,2,369.600496,367.4980934,Predictive Locations,obj065,Even_Split,59.95818516,NA,"bus driver, driver, public transportation, bus",Congruent,370.550453,NA,Congruent
razor,0.99028933,en-us,NA,1,78,2.42,2.775,razor,saw,-7,2.425995,0,370.5562955,2,373.6029098,370.550453,Predictive Locations,obj350,Even_Split,59.95818516,NA,"spaceship, blade, razorblade, shaving, shaver, _windshieldwiper, razor, saw",Incongruent,376.171448,NA,Incongruent
bee,0.9276277,en-us,NA,1,79,1.15,1.36,bee,moon,-7,1.143852,0,376.1774612,2,378.2735528,376.171448,Predictive Locations,obj038,Even_Split,59.95818516,NA,"bug, fly, bee, moon",Incongruent,379.0236651,NA,Incongruent
pack,0.9320892,en-us,NA,1,80,1.48,1.705,bag,bag,-7,1.4136686,0,379.0294104,2,381.1254104,379.0236651,Predictive Locations,obj022,Even_Split,59.95818516,NA,"lunch bag, bag",Congruent,382.976699,NA,Incongruent
shoulder,0.951759,en-us,NA,1,81,1.035,1.405,shoulder,shoulder,-7,0.9023125,0,382.9824578,2,385.0951241,382.976699,Predictive Locations,obj394,Even_Split,59.95818516,NA,"bicep, arm, upper arm, body, upper body, shoulder",Congruent,385.8455781,NA,Incongruent
shower,0.98762906,en-us,NA,1,82,1.95,2.23,shower,bench,-7,0.9682277,1.2714295,385.8511889,2,387.9473173,385.8455781,Predictive Locations,obj396,Even_Split,59.95818516,NA,"faucet, nozzle, valve, spout, water, showerhead, shower, bench",Incongruent,392.8009302,NA,Incongruent
sweater,0.98762906,en-us,NA,1,83,0.995,1.285,sweater,sweater,-7,0.9903119,1.3844287,392.8068573,2,394.902703,392.8009302,Predictive Locations,obj433,Even_Split,59.95818516,NA,"shirt, long sleeve shirt, sweatshirt, pullover, jacket, sweater",Congruent,395.6531194,NA,Incongruent
palette,0.9938145,en-us,NA,1,84,1.915,2.205,paint,beard,-7,1.8694201,0,395.6588067,2,398.1551593,395.6531194,Predictive Locations,obj294,Even_Split,59.95818516,NA,"paintbrush, paintbrushes, palette, paint palette, art, painting, paint, beard",Incongruent,400.2233235,NA,Incongruent
crackers,0.9789681,en-us,NA,1,85,1.36,1.785,crackers,crackers,-7,1.2706939,0,400.2291672,2,402.3250587,400.2233235,Predictive Locations,obj114,Even_Split,59.95818516,NA,"saltine, saltines, cookie, cookies, graham cracker, graham crackers, crackers",Congruent,403.2756549,NA,Incongruent
dentist,0.97331774,en-us,NA,1,86,1.575,1.885,dentist,dentist,7,1.4979454,0,403.2812949,2,405.3941093,403.2756549,Predictive Locations,obj122,Even_Split,59.95818516,NA,"orthodontist, oral surgeon, doctor, patient, feeding, dentist",Congruent,407.3454853,NA,Congruent
parrot,0.98762906,en-us,NA,1,87,1.27,1.57,parrot,clown,-7,1.2199862,0,407.3512764,2,409.4472487,407.3454853,Predictive Locations,obj302,Even_Split,59.95818516,NA,"bird, macaw, parakeet, toucan, cockatoo, lovebird, pecan, parrot, clown",Incongruent,410.5979936,NA,Incongruent
toilet,0.98762906,en-us,NA,1,88,1.125,1.495,toilet,toilet,7,1.0097545,0,410.6036129,2,412.7164153,410.5979936,Predictive Locations,obj458,Even_Split,59.95818516,NA,"restroom, lavatory, toilet",Congruent,413.4668794,NA,Congruent
refrigerator,0.98762906,en-us,NA,1,89,1.445,1.84,refrigerator,globe,-7,1.2256505,0,413.472521,2,415.5686248,413.4668794,Predictive Locations,obj352,Even_Split,59.95818516,NA,"fridge, freezer, appliance, refrigerator, globe",Incongruent,418.1204542,NA,Incongruent
glove,0.97645974,en-us,NA,1,90,1.02,1.295,glove,glove,-7,0.9599727,0,418.1262695,2,420.222201,418.1204542,Predictive Locations,obj183,Even_Split,59.95818516,NA,"mitt, hand, glove",Congruent,420.9726278,NA,Incongruent
bear,0.966437,en-us,NA,1,91,1.05,1.28,bear,bear,-7,1.0417693,1.4028537,420.9782487,2,423.0744029,420.9726278,Predictive Locations,obj034,Even_Split,59.95818516,NA,"grizzly, bear",Congruent,423.8248533,NA,Incongruent
pyramid,0.98762906,en-us,NA,1,92,1.31,1.79,pyramid,lemon,-7,1.2805842,0,423.83043,2,425.9266111,423.8248533,Predictive Locations,obj341,Even_Split,59.95818516,NA,"Egypt, shrine, tomb, prism, pyramid, lemon",Incongruent,427.9780505,NA,Incongruent
robot,0.985374,en-us,NA,1,93,0.955,1.085,robot,robot,7,0.9505005,1.3970961,427.9837961,2,430.0798002,427.9780505,Predictive Locations,obj357,Even_Split,59.95818516,NA, robot,Congruent,430.8302443,NA,Congruent
hippo,0.98762906,en-us,NA,1,94,1.705,1.89,hippo,priest,-7,1.503016,0,430.8358275,2,432.9653761,430.8302443,Predictive Locations,obj207,Even_Split,59.95818516,NA,"hippopotamus, rhino, rhinoceros, hippo, priest",Incongruent,434.4163243,NA,Incongruent
Terry,0.79235137,en-us,NA,1,95,1.345,1.66,cherry,cherry,7,1.2000464,0,434.4220318,2,436.5180981,434.4163243,Predictive Locations,obj091,Even_Split,59.95818516,NA,"grape, cherry",Congruent,437.6688564,NA,Congruent
fish,0.9868068,en-us,NA,1,96,1.145,1.26,fish,fish,-7,1.1554229,0,437.6745071,2,439.7706969,437.6688564,Predictive Locations,obj157,Even_Split,59.95818516,NA, fish,Congruent,440.5210878,NA,Incongruent
train,0.9824244,en-us,NA,1,97,1.285,1.51,train,owl,-7,1.1915541,0,440.5266815,2,442.6228046,440.5210878,Predictive Locations,obj467,Even_Split,59.95818516,NA,"rail, train, owl",Incongruent,443.4733254,NA,Incongruent
bread,0.95574164,en-us,NA,1,98,1.15,1.35,bread,bread,7,1.1388721,1.4218023,443.4789731,2,445.5750849,443.4733254,Predictive Locations,obj060,Even_Split,59.95818516,NA,"loaf, toast, bread",Congruent,446.3255382,NA,Congruent
lightbulb,0.951813,en-us,NA,1,99,1.145,1.52,lightbulb,lightbulb,-7,1.1294599,0,446.3311285,2,448.4274345,446.3255382,Predictive Locations,obj242,Even_Split,59.95818516,NA,"bulb, light, lightbulb",Congruent,449.4779423,NA,Incongruent
parachute,0.98762906,en-us,NA,1,100,1.295,1.785,parachute,lizard,-7,1.2409295,0,449.4836317,2,451.5797132,449.4779423,Predictive Locations,obj301,Even_Split,59.95818516,NA,"safety net, hot air balloon, parachute, lizard",Incongruent,452.9306203,NA,Incongruent
cry,0.8784796,en-us,NA,1,101,1.465,1.9,tear,feather,7,1.4749467,0,452.9363286,2,455.0323736,452.9306203,Predictive Locations,obj442,Even_Split,59.95818516,NA,"cry, crying, child, boy, girl, sad, sadness, sulk, tears, tear, feather",Incongruent,457.0838297,NA,Congruent
cactus,0.95466423,en-us,NA,1,102,1.06,1.7,cactus,cactus,7,1.0820837,0,457.0896012,2,459.2023192,457.0838297,Predictive Locations,obj069,Even_Split,59.95818516,NA,"cacti, cactuses, cactus",Congruent,460.052783,NA,Congruent
butterfly,0.98762906,en-us,NA,1,103,1.26,1.755,butterfly,knight,7,1.2440529,0,460.0583719,2,462.1545444,460.052783,Predictive Locations,obj067,Even_Split,59.95818516,NA,"moth, butterfly, knight",Incongruent,463.205226,NA,Congruent
car,0.9938145,en-us,NA,1,104,0.93,1.125,car,car,-7,0.8612636,1.1797556,463.2109109,2,465.3069586,463.205226,Predictive Locations,obj081,Even_Split,59.95818516,NA,"automobile, sedan, station wagon, car",Congruent,466.0574195,NA,Incongruent
Fork,0.6776532,en-us,NA,1,105,1.29,1.425,fork,shoe,7,1.287721,0,466.0629728,2,468.1591637,466.0574195,Predictive Locations,obj168,Even_Split,59.95818516,NA,"utensil, fork, shoe",Incongruent,468.9096109,NA,Congruent
pirate,0.98688555,en-us,NA,1,106,1.185,1.485,pirate,pirate,7,1.146232,0,468.9152631,2,471.011417,468.9096109,Predictive Locations,obj323,Even_Split,59.95818516,NA,"sailor, raider, buccaneer, pirate ship, man, male, pirate",Congruent,471.7617664,NA,Congruent
candle,0.98378956,en-us,NA,1,107,1.05,1.36,candle,can,7,0.9958126,1.4033714,471.7673792,2,473.880235,471.7617664,Predictive Locations,obj075,Even_Split,59.95818516,NA,"light, candle, can",Incongruent,474.6306939,NA,Congruent
hand,0.96936226,en-us,NA,1,108,1.17,1.365,hand,hand,7,1.1375635,0,474.6362939,2,476.7324074,474.6306939,Predictive Locations,obj195,Even_Split,59.95818516,NA,"fingers, hand",Congruent,477.4828705,NA,Congruent
fence,0.9877138,en-us,NA,1,109,1.24,1.605,fence,letter,-7,1.2027665,0,477.4885145,2,479.5846362,477.4828705,Predictive Locations,obj152,Even_Split,59.95818516,NA,"wall, fence, letter",Incongruent,480.6353147,NA,Incongruent
igloo,0.9813193,en-us,NA,1,110,1.235,1.61,igloo,microscope,-7,1.2144133,0,480.6409513,2,482.7404161,480.6353147,Predictive Locations,obj216,Even_Split,59.95818516,NA,"shell, house, igloo, microscope",Incongruent,483.5875517,NA,Incongruent
broom,0.98762906,en-us,NA,1,111,1.13,1.44,broom,iron,7,1.1228354,0,483.5931839,2,485.6893569,483.5875517,Predictive Locations,obj063,Even_Split,59.95818516,NA,"mop, sweeper, broom, iron",Incongruent,486.4403002,NA,Congruent
couch,0.980397,en-us,NA,1,112,1.025,1.35,couch,couch,7,0.9127191,1.4321404,486.4458778,2,488.5415466,486.4403002,Predictive Locations,obj412,Even_Split,59.95818516,NA,"sofa, futon, loveseat, lounge, couch",Congruent,489.2919909,NA,Congruent
book,0.9698477,en-us,NA,1,113,NA,NA,book,book,7,0.9062459,1.0811601,489.2975909,2,491.3937382,489.2919909,Predictive Locations,obj051,Even_Split,59.95818516,NA,"novel, textbook, bible, book",Congruent,492.1441894,NA,Congruent
piano,0.98762906,en-us,NA,1,114,1.1,1.465,piano,match,-7,1.0402837,0,492.149739,2,494.2459566,492.1441894,Predictive Locations,obj314,Even_Split,59.95818516,NA,"instrument, music, musical instrument, keyboard, grand piano, organ, piano, match",Incongruent,494.9964278,NA,Incongruent
faucet,0.98762906,en-us,NA,1,115,1.31,1.685,faucet,faucet,7,1.3052813,0,495.0021323,2,497.0981961,494.9964278,Predictive Locations,obj150,Even_Split,59.95818516,NA,"sink, nozzle, valve, tap, water, faucet",Congruent,498.2489058,NA,Congruent
racket,0.97857845,en-us,NA,1,116,2.415,2.725,tennisracket,plug,-7,1.2493971,0,498.2545738,2,500.3506397,498.2489058,Predictive Locations,obj448,Even_Split,59.95818516,NA,"racket, tennis, squash, racket ball, tennisracket, plug",Incongruent,505.404413,NA,Incongruent
crown,0.97814566,en-us,NA,1,117,1.16,1.425,crown,vacuum,-7,1.159047,0,505.4103415,2,507.5061652,505.404413,Predictive Locations,obj117,Even_Split,59.95818516,NA,"king, regal, crown, vacuum",Incongruent,508.2565977,NA,Incongruent
TV,0.7482767,en-us,NA,1,118,1.14,1.515,tv,tv,7,1.1069834,0,508.2623584,2,510.3583748,508.2565977,Predictive Locations,obj447,Even_Split,59.95818516,NA,"television, cable, screen, tv set, microwave, tv",Congruent,511.2088602,NA,Congruent
fan,0.98762906,en-us,NA,1,119,1.37,1.705,fan,medal,7,1.382672,0,511.2145726,2,513.3106381,511.2088602,Predictive Locations,obj149,Even_Split,59.95818516,NA,"blower, fan, medal",Incongruent,514.6782315,NA,Congruent
bomb,0.9762244,en-us,NA,1,120,1.3,1.62,bomb,bomb,7,0.662558,0.6736735,514.6839299,2,516.7799947,514.6782315,Predictive Locations,obj049,Even_Split,59.95818516,NA,"TNT, explosive, grenade, bomb",Congruent,517.9307374,NA,Congruent
rain,0.97981215,en-us,NA,1,121,1.24,1.57,rain,rain,7,1.246619,0,517.9363038,2,520.0324771,517.9307374,Predictive Locations,obj347,Even_Split,59.95818516,NA,"puddle, puddles, shower, drizzle, flood, storm, raindrops, rain",Congruent,520.9831005,NA,Congruent
drawers,0.98762906,en-us,NA,1,122,1.805,2.19,dresser,dragon,-7,1.7563299,0,520.988729,2,523.368397,520.9831005,Predictive Locations,obj136,Even_Split,59.95818516,NA,"drawer, cabinet, chest, cupboard, drawers, dresser, dragon",Incongruent,526.0369917,NA,Incongruent
diaper,0.9804846,en-us,NA,1,123,1.765,1.965,diaper,diaper,7,1.498581,0,526.0429253,2,528.1554222,526.0369917,Predictive Locations,obj125,Even_Split,59.95818516,NA,"underwear, underpants, diaper",Congruent,530.6238587,NA,Congruent
rope,0.9728671,en-us,NA,1,124,1.06,1.255,rope,rope,7,1.0707956,0,530.6296881,2,532.7256108,530.6238587,Predictive Locations,obj365,Even_Split,59.95818516,NA,"thread, twine, rope",Congruent,533.4760689,NA,Congruent
gold,0.9647275,en-us,NA,1,125,1.395,1.675,dime,spider,7,0.812421,1.1214163,533.4818733,2,535.5777955,533.4760689,Predictive Locations,obj104,Even_Split,59.95818516,NA,"coin, money, change, gold, dime, spider",Incongruent,538.4299161,NA,Congruent
ostrich,0.98102343,en-us,NA,1,126,1.25,1.375,ostrich,ostrich,7,1.1014313,0,538.4371242,2,540.5316214,538.4299161,Predictive Locations,obj289,Even_Split,59.95818516,NA,"emu, turkey, llama, ostrich",Congruent,541.6823887,NA,Congruent
closet,0.98762906,en-us,NA,1,127,2.25,2.57,closet,leopard,7,2.1688647,0,541.6880533,2,544.4846737,541.6823887,Predictive Locations,obj494,Even_Split,59.95818516,NA,"wardrobe, dresser, cabinet, cupboard, closet, leopard",Incongruent,546.2358895,NA,Congruent
Paperclip,0.98762906,en-us,NA,1,128,2.335,2.61,paperclip,paw,-7,2.2390651,0,546.2417871,2,549.1048988,546.2358895,Predictive Locations,obj300,Even_Split,59.95818516,NA," paperclip, paw",Incongruent,551.273113,NA,Incongruent
bug,0.98762906,en-us,NA,1,129,1.105,1.295,bug,pencil,-7,1.0963324,0,551.2790863,2,553.3752224,551.273113,Predictive Locations,obj039,Even_Split,59.95818516,NA,"beetle, bug, pencil",Incongruent,554.1252906,NA,Incongruent
tail,0.90872926,en-us,NA,1,130,1.655,1.875,tail,gun,-7,1.5921399,0,554.1309283,2,556.3438254,554.1252906,Predictive Locations,obj438,Even_Split,59.95818516,NA,"butt, rear, hair, horse, tail, gun",Incongruent,558.1117169,NA,Incongruent
pan,0.95054436,en-us,NA,1,131,1.685,2,pan,umbrella,-7,1.652963,0,558.1176259,2,560.396918,558.1117169,Predictive Locations,obj296,Even_Split,59.95818516,NA,"kettle, pot, saucepan, frying pan, sheet, skillet, pan, umbrella",Incongruent,562.0483924,NA,Incongruent
chest,0.98089683,en-us,NA,1,132,1.185,1.405,chest,seesaw,-7,1.194735,0,562.0541453,2,564.1497068,562.0483924,Predictive Locations,obj092,Even_Split,59.95818516,NA,"body, hair, body hair, nipple, nipples, abdomen, stomach, muscle, hairy chest, chest, seesaw",Incongruent,565.0003586,NA,Incongruent
toaster,0.98307955,en-us,NA,1,133,1.135,1.58,toaster,sandwich,-7,1.0955756,0,588.2060089,3,590.3200042,565.0003586,Predictive Locations,obj456,Even_Split,59.95818516,NA,"toaster oven, toaster, sandwich",Incongruent,591.2706258,NA,Incongruent
asparagus,0.9938145,en-us,NA,1,134,1.07,1.745,asparagus,watch,7,1.0671297,0,591.2762406,3,593.3723517,591.2706258,Predictive Locations,obj015,Even_Split,59.95818516,NA,"artichoke, asparagus, watch",Incongruent,594.9401116,NA,Congruent
sailboat,0.95594037,en-us,NA,1,135,1.525,1.91,sailboat,skis,-7,1.4569404,0,594.9458006,3,597.0418778,594.9401116,Predictive Locations,obj372,Even_Split,59.95818516,NA,"ship, boat, sail, catamaran, sunfish, vessel, yacht, sloop, sailboat, skis",Incongruent,599.3935609,NA,Incongruent
bathtub,0.95979685,en-us,NA,1,136,1.375,1.815,bathtub,bathtub,7,1.3556559,0,599.399336,3,601.5119869,599.3935609,Predictive Locations,obj033,Even_Split,59.95818516,NA,"bath, tub, bathtub",Congruent,602.5626607,NA,Congruent
NA,NA,NA,NA,1,137,NA,NA,boot,puzzle,-7,1.4123447,0,602.568343,3,604.6644062,602.5626607,Predictive Locations,obj052,Even_Split,59.95818516,NA,"shoe, cowboy boot, boot, puzzle",Incongruent,605.8151387,NA,Incongruent
typewriter,0.98762906,en-us,NA,1,138,1.25,1.59,typewriter,typewriter,7,1.0415838,0,605.8207914,3,607.9195519,605.8151387,Predictive Locations,obj478,Even_Split,59.95818516,NA,"keyboard, printer, typewriter",Congruent,609.1677506,NA,Congruent
ear,0.96774393,en-us,NA,1,139,1.045,1.33,ear,helicopter,-7,1.0369533,0,609.1734366,3,611.286167,609.1677506,Predictive Locations,obj142,Even_Split,59.95818516,NA,"audio, ear, helicopter",Incongruent,612.0366313,NA,Incongruent
vest,0.96691173,en-us,NA,1,140,1.31,1.465,vest,acorn,7,1.2928334,0,612.0422646,3,614.1401286,612.0366313,Predictive Locations,obj484,Even_Split,59.95818516,NA,"jacket, waistcoat, vest, acorn",Incongruent,615.0889875,NA,Congruent
tent,0.9820559,en-us,NA,1,141,1.085,1.235,tent,tent,7,1.0097819,0,615.0946412,3,617.1915228,615.0889875,Predictive Locations,obj449,Even_Split,59.95818516,NA,"yurt, camp, hut, wigwam, tent",Congruent,617.9413012,NA,Congruent
carousel,0.98762906,en-us,NA,1,142,1.4,1.88,carousel,fox,-7,1.3352221,0,617.9468714,3,620.0429583,617.9413012,Predictive Locations,obj082,Even_Split,59.95818516,NA,"merry go round, ride, carousel, fox",Incongruent,621.5940034,NA,Incongruent
purse,0.9838854,en-us,NA,1,143,1.595,1.875,purse,pillar,-7,1.5547054,0,621.5997182,3,623.779139,621.5940034,Predictive Locations,obj340,Even_Split,59.95818516,NA,"pocket book, hand bag, bag, pouch, wallet, clutch, money bag, purse, pillar",Incongruent,625.4302963,NA,Incongruent
wrench,0.95520616,en-us,NA,1,144,1.635,2.02,wrench,nail,-7,1.6397498,0,625.4360083,3,627.6988332,625.4302963,Predictive Locations,obj517,Even_Split,59.95818516,NA,"pliers, ratchet, wrench, nail",Incongruent,629.6502121,NA,Incongruent
window,0.98762906,en-us,NA,1,145,1.275,1.635,window,window,7,1.2665021,0,629.6560169,3,631.7519669,629.6502121,Predictive Locations,obj510,Even_Split,59.95818516,NA,"pane, windowpane, window",Congruent,633.2029277,NA,Congruent
Apple,0.9746992,en-us,NA,1,146,1.315,1.455,apple,arm,-7,1.1000973,0,633.2087609,3,635.3047093,633.2029277,Predictive Locations,obj009,Even_Split,59.95818516,NA,"fruit, apple, arm",Incongruent,636.0551588,NA,Incongruent
llama,0.96316755,en-us,NA,1,147,1.445,1.855,llama,llama,7,1.3452198,0,636.0607954,3,638.1568649,636.0551588,Predictive Locations,obj250,Even_Split,59.95818516,NA,"alpaca, sheep, ostrich, llama",Congruent,640.4252175,NA,Congruent
glass,0.88678,en-us,NA,1,148,1.54,1.795,glass,rockingchair,-7,1.4681819,0,640.4308999,3,642.5269487,640.4252175,Predictive Locations,obj511,Even_Split,59.95818516,NA,"wine glass, champagne glass, cup, drink, mug,  glass, rockingchair",Incongruent,644.3782297,NA,Incongruent
chair,0.98762906,en-us,NA,1,149,1.08,1.34,chair,chair,-7,0.9892665,0,644.3840045,3,646.4799744,644.3782297,Predictive Locations,obj089,Even_Split,59.95818516,NA,"seat, chair",Congruent,647.2304242,NA,Incongruent
Genie,0.9866934,en-us,NA,1,150,1.615,1.96,genie,paper,-7,1.5563991,0,647.2360276,3,649.4164962,647.2304242,Predictive Locations,obj176,Even_Split,59.95818516,NA,"wizard, spirit, genie, paper",Incongruent,651.9673789,NA,Incongruent
sailor,0.91885537,en-us,NA,1,151,2.125,2.425,sailor,sailor,7,2.0818971,0,651.9731986,3,654.6863071,651.9673789,Predictive Locations,obj373,Even_Split,59.95818516,NA,"man, male, boater, mariner, shipmate, yachter, sailor",Congruent,657.0546644,NA,Congruent
cat,0.9824251,en-us,NA,1,152,1.025,1.33,cat,city,-7,1.0379316,1.4040988,657.0606342,3,659.1564456,657.0546644,Predictive Locations,obj086,Even_Split,59.95818516,NA,"kitten, kitty, cat, city",Incongruent,659.9068739,NA,Incongruent
Bell,0.9616935,en-us,NA,1,153,1.295,1.57,bell,bell,7,1.3029855,0,659.9124846,3,662.0253065,659.9068739,Predictive Locations,obj040,Even_Split,59.95818516,NA, bell,Congruent,662.8758285,NA,Congruent
cheese,0.97261333,en-us,NA,1,154,1.185,1.465,cheese,cheese,-7,1.1144416,0,662.8815048,3,664.9775617,662.8758285,Predictive Locations,obj090,Even_Split,59.95818516,NA, cheese,Congruent,665.7280559,NA,Incongruent
swing,0.97614646,en-us,NA,1,155,1.27,1.61,swing,swing,-7,1.2873971,0,665.7336673,3,667.8464584,665.7280559,Predictive Locations,obj434,Even_Split,59.95818516,NA,"swings, playground, swingset, swing",Congruent,668.6969563,NA,Incongruent
Tire,0.91346955,en-us,NA,1,156,1.1,1.595,tire,tire,-7,1.0963979,0,668.7026009,3,670.7986937,668.6969563,Predictive Locations,obj455,Even_Split,59.95818516,NA,"wheel, tire",Congruent,671.5491849,NA,Incongruent
toothbrush,0.98762906,en-us,NA,1,157,1.585,1.93,toothbrush,toothbrush,7,1.2287598,0,671.5548103,3,673.6509455,671.5491849,Predictive Locations,obj461,Even_Split,59.95818516,NA,"brush, toothbrush",Congruent,674.6015123,NA,Congruent
fruit,0.97130144,en-us,NA,1,158,2.005,2.18,orange,man,-7,2.0051905,0,674.6071312,3,677.2480548,674.6015123,Predictive Locations,obj288,Even_Split,59.95818516,NA,"tangerine, grapefruit, clementine, mandarin, peach, apricot, fruit, rock, orange, man",Incongruent,679.0883388,NA,Incongruent
wig,0.98213047,en-us,NA,1,159,1.465,1.625,wig,wig,7,1.4738919,0,679.0941718,3,681.1900701,679.0883388,Predictive Locations,obj508,Even_Split,59.95818516,NA,"mannequin, figure, hairpiece, hair, wig",Congruent,682.8421279,NA,Congruent
tank,0.97909546,en-us,NA,1,160,1.36,1.495,fishtank,palmtree,-7,1.2304389,0,682.8478418,3,684.9429716,682.8421279,Predictive Locations,obj010,Even_Split,59.95818516,NA,"fish, aquarium, tank, fishtank, palmtree",Incongruent,685.7934765,NA,Incongruent
guitar,0.9919673,en-us,NA,1,161,NA,NA,guitar,guitar,7,1.2293342,0,685.7991257,3,687.8952553,685.7934765,Predictive Locations,obj188,Even_Split,59.95818516,NA, guitar,Congruent,689.0460038,NA,Congruent
jumprope,0.9789316,en-us,NA,1,162,1.19,1.62,jumprope,jumprope,7,1.1404846,0,689.0516928,3,691.1644139,689.0460038,Predictive Locations,obj223,Even_Split,59.95818516,NA,"rope, whip, jumprope",Congruent,692.8155542,NA,Congruent
bandaid,0.96026397,en-us,NA,1,163,1.03,1.53,bandaid,bandaid,7,1.0516512,0,692.8212902,3,694.9339692,692.8155542,Predictive Locations,obj027,Even_Split,59.95818516,NA,"bandage, bandaid",Congruent,695.8846172,NA,Congruent
hook,0.9938145,en-us,NA,1,164,NA,NA,hook,hook,7,1.1079003,1.3377404,695.8902533,3,698.0030287,695.8846172,Predictive Locations,obj210,Even_Split,59.95818516,NA, hook,Congruent,698.753492,NA,Congruent
boat,0.9193405,en-us,NA,1,165,1.08,1.285,boat,boat,7,1.0826944,1.3423385,698.7590866,3,700.855207,698.753492,Predictive Locations,obj391,Even_Split,59.95818516,NA,"ship, Titanic, vessel, yacht, barge, boat",Congruent,701.6056788,NA,Congruent
whistle,0.96263003,en-us,NA,1,166,1.74,1.895,whistle,flashlight,7,1.5039298,0,701.6112447,3,703.7407899,701.6056788,Predictive Locations,obj507,Even_Split,59.95818516,NA," whistle, flashlight",Incongruent,705.2918376,NA,Congruent
stairs,0.96179545,en-us,NA,1,167,1.485,1.755,stairs,stairs,7,1.4573821,0,705.2975756,3,707.3936194,705.2918376,Predictive Locations,obj420,Even_Split,59.95818516,NA,"stair, stairway, staircase, steps, stairwell, stairs",Congruent,709.4450624,NA,Congruent
panda,0.93968785,en-us,NA,1,168,1.09,1.41,panda,panda,-7,0.898736,0,709.4508219,3,711.5468332,709.4450624,Predictive Locations,obj297,Even_Split,59.95818516,NA,"bear, panda bear, panda",Congruent,712.2973056,NA,Incongruent
branch,0.9127122,en-us,NA,1,169,1.08,1.24,branch,branch,7,1.0466111,0,712.3029538,3,714.415754,712.2973056,Predictive Locations,obj058,Even_Split,59.95818516,NA,"tree, leaf, leaves, bark, twig, extension, branches, branch",Congruent,715.1661409,NA,Congruent
teeth,0.9786812,en-us,NA,1,170,1.12,1.26,teeth,teeth,-7,1.0661182,1.3248712,715.1717909,3,717.2678957,715.1661409,Predictive Locations,obj444,Even_Split,59.95818516,NA,"denture, dentures, fake teeth, molar, molars, gum, gums, dental, teeth",Congruent,718.0183043,NA,Incongruent
ice cream,0.9675638,en-us,NA,1,171,1.22,1.66,icecreamcone,banjo,-7,1.1939893,0,718.0241474,3,720.1356964,718.0183043,Predictive Locations,obj215,Even_Split,59.95818516,NA,"ice cream, cone, icecreamcone, banjo",Incongruent,721.2875316,NA,Incongruent
tomato,0.98762906,en-us,NA,1,172,1.205,1.61,tomato,rocket,-7,1.1088628,0,721.2932123,3,723.3892789,721.2875316,Predictive Locations,obj459,Even_Split,59.95818516,NA,"peach, apple, orange, kiwi, plum, nectarine, tomato, rocket",Incongruent,724.7401869,NA,Incongruent
elephant,0.98762906,en-us,NA,1,173,1,1.53,elephant,elephant,7,0.9944632,0,724.7458684,3,726.8419329,724.7401869,Predictive Locations,obj145,Even_Split,59.95818516,NA, elephant,Congruent,727.792544,NA,Congruent
pool,0.9830979,en-us,NA,1,174,1.28,1.605,pool,deer,7,1.2355802,0,727.7981813,3,729.8942894,727.792544,Predictive Locations,obj331,Even_Split,59.95818516,NA," pool, deer",Incongruent,731.361974,NA,Congruent
well,0.98762906,en-us,NA,1,175,1.245,1.62,well,leaf,-7,1.2224926,0,731.3677106,3,733.4637164,731.361974,Predictive Locations,obj500,Even_Split,59.95818516,NA,"hole, reservoir, water, bucket, spring, well, leaf",Incongruent,734.7145487,NA,Incongruent
hose,0.9884449,en-us,NA,1,176,1.235,1.465,hose,badge,-7,1.174913,0,734.7202389,3,736.8163378,734.7145487,Predictive Locations,obj212,Even_Split,59.95818516,NA,"water hose, snake, hose, badge",Incongruent,737.5667614,NA,Incongruent
pitcher,0.9476073,en-us,NA,1,177,1.375,1.475,pitcher,pitcher,7,1.1420268,0,737.5723776,3,739.6685118,737.5667614,Predictive Locations,obj324,Even_Split,59.95818516,NA,"jug, vase, vessel, bottle, container, pint, pitcher",Congruent,740.4189482,NA,Congruent
ant,0.91468734,en-us,NA,1,178,1.165,1.33,ant,ant,7,1.1710753,1.4041721,740.4245808,3,742.5206943,740.4189482,Predictive Locations,obj006,Even_Split,59.95818516,NA,"insect, ant",Congruent,743.2711545,NA,Congruent
Act,0.95768976,en-us,NA,1,179,1.595,1.74,ax,bra,-7,1.592342,0,743.276738,3,745.5063063,743.2711545,Predictive Locations,obj016,Even_Split,59.95818516,NA,"tomahawk, hatchet, axe, ax, bra",Incongruent,746.7572272,NA,Incongruent
nest,0.8983887,en-us,NA,1,180,1.025,1.235,nest,nest,7,1.0161544,1.3997001,746.7631053,3,748.8589188,746.7572272,Predictive Locations,obj281,Even_Split,59.95818516,NA,"eggs, basket, nest",Congruent,749.6093696,NA,Congruent
box,0.9593233,en-us,NA,1,181,1.125,1.285,box,box,7,1.1135616,1.3078629,749.6149659,3,751.7111016,749.6093696,Predictive Locations,obj056,Even_Split,59.95818516,NA,"package, carton, box",Congruent,752.4615667,NA,Congruent
ghost,0.9613472,en-us,NA,1,182,1.195,1.35,ghost,ghost,7,1.2032913,0,752.4671422,3,754.5633176,752.4615667,Predictive Locations,obj177,Even_Split,59.95818516,NA, ghost,Congruent,755.3137709,NA,Congruent
chicken,0.9816211,en-us,NA,1,183,1.575,1.76,chicken,dinosaur,-7,1.3492206,0,755.3193776,3,757.4155131,755.3137709,Predictive Locations,obj093,Even_Split,59.95818516,NA,"rooster, bird, turkey, hen, poultry, chicken, dinosaur",Incongruent,758.1659896,NA,Incongruent
crab,0.9938145,en-us,NA,1,184,1.13,1.43,crab,fly,7,1.136916,0,758.1716871,3,760.2843859,758.1659896,Predictive Locations,obj113,Even_Split,59.95818516,NA,"lobster, crustacean, crab, fly",Incongruent,761.0348449,NA,Congruent
lightning,0.98530483,en-us,NA,1,185,1.135,1.57,lightning,fire,-7,1.1703243,0,761.0406497,3,763.1367648,761.0348449,Predictive Locations,obj244,Even_Split,59.95818516,NA,"storm, rainstorm, lightning storm, rain, lightning bolt, thunder, thunderstorm, lightning, fire",Incongruent,764.0872087,NA,Incongruent
duck,0.97880554,en-us,NA,1,186,1.085,1.26,duck,bucket,-7,1.1039588,1.3024569,764.093164,3,766.1889365,764.0872087,Predictive Locations,obj139,Even_Split,59.95818516,NA,"duckling, goose, mallard, swan, seagull, duck, bucket",Incongruent,766.9393921,NA,Incongruent
Pig,0.98714715,en-us,NA,1,187,1.285,1.395,pig,pig,7,1.2307919,0,766.9449572,3,769.0411407,766.9393921,Predictive Locations,obj316,Even_Split,59.95818516,NA,"boar, hog, piglet, pig",Congruent,769.791555,NA,Congruent
girl,0.98021626,en-us,NA,1,188,1.52,1.84,girl,girl,7,1.5250472,0,769.7980718,3,771.9600608,769.791555,Predictive Locations,obj179,Even_Split,59.95818516,NA,"child, kid, youngster, youth, daughter, minor, girl",Congruent,773.6112119,NA,Congruent
flower,0.9688926,en-us,NA,1,189,1.065,1.31,flower,flower,7,0.9645683,1.4013761,773.6169365,3,775.7296262,773.6112119,Predictive Locations,obj163,Even_Split,59.95818516,NA,"sunflower, daisy, daffodil, flower",Congruent,776.4800837,NA,Congruent
knife,0.9733132,en-us,NA,1,190,1.335,1.545,knife,waffle,-7,1.3430479,0,776.485689,3,778.5818733,776.4800837,Predictive Locations,obj228,Even_Split,59.95818516,NA,"utensil, knife, waffle",Incongruent,779.7325917,NA,Incongruent
dog,0.98345953,en-us,NA,1,191,1.095,1.335,dog,ring,-7,0.9168861,0.9425706,779.7382742,3,781.834346,779.7325917,Predictive Locations,obj128,Even_Split,59.95818516,NA,"puppy, hound, dog, ring",Incongruent,782.5847934,NA,Incongruent
dress,0.98202896,en-us,NA,1,192,1.08,1.21,dress,chain,-7,1.0513785,1.3365434,782.5903626,3,784.686538,782.5847934,Predictive Locations,obj135,Even_Split,59.95818516,NA,"doll, gown, mannequin, dress, chain",Incongruent,785.4369949,NA,Incongruent
witch,0.9570044,en-us,NA,1,193,1.505,1.835,witch,pear,-7,0.8377674,0.8920053,785.4426133,3,787.5387249,785.4369949,Predictive Locations,obj513,Even_Split,59.95818516,NA,"sorceress, wizard, broom, witch, pear",Incongruent,788.9897301,NA,Incongruent
seahorse,0.9632673,en-us,NA,1,194,1.175,1.57,seahorse,slide,7,1.1966961,0,788.9953278,3,791.0915595,788.9897301,Predictive Locations,obj384,Even_Split,59.95818516,NA,"sea dragon, seahorse, slide",Incongruent,792.0420875,NA,Congruent
drum,0.92257893,en-us,NA,1,195,1.27,1.57,drum,drum,-7,1.227381,0,792.0477972,3,794.1438624,792.0420875,Predictive Locations,obj138,Even_Split,59.95818516,NA,"instrument, drums, drum",Congruent,794.894424,NA,Incongruent
horse,0.97966254,en-us,NA,1,196,1.11,1.295,horse,net,-7,1.0522367,0,794.9000903,3,796.9961643,794.894424,Predictive Locations,obj211,Even_Split,59.95818516,NA,"colt, pony, donkey, mule, horse, net",Incongruent,797.7464888,NA,Incongruent
beaver,0.91197944,en-us,NA,1,197,1.445,2.02,beaver,beaver,-7,1.44444,0,797.7520519,3,799.8482318,797.7464888,Predictive Locations,obj036,Even_Split,59.95818516,NA,"otter, beaver",Congruent,801.8996862,NA,Incongruent
peacock,0.98762906,en-us,NA,1,198,1.26,1.665,peacock,skateboard,-7,1.2218343,0,801.90545,3,804.001308,801.8996862,Predictive Locations,obj305,Even_Split,59.95818516,NA,"turkey, peafowl, peahen, feather, feathers, peacock, skateboard",Incongruent,804.7518792,NA,Incongruent
Cube,0.98762906,en-us,NA,1,199,1.395,1.53,block,kangaroo,-7,1.3851152,0,818.3334178,4,820.4474265,804.7518792,Predictive Locations,obj118,Even_Split,59.95818516,NA,"cube, square, ice, box, block, kangaroo",Incongruent,821.6982954,NA,Incongruent
lightswitch,0.93499744,en-us,NA,1,200,NA,NA,lightswitch,lightswitch,7,1.100619,0,821.7039501,4,823.8000165,821.6982954,Predictive Locations,obj245,Even_Split,59.95818516,NA,"light, switch, flip switch, lightswitch",Congruent,824.5504534,NA,Congruent
briefcase,0.96348524,en-us,NA,1,201,1.97,2.11,suitcase,foot,-7,1.6825683,0,824.5560597,4,826.8857582,824.5504534,Predictive Locations,obj430,Even_Split,59.95818516,NA,"bag, briefcase, luggage, attaché case, case, handbag, suitcase, foot",Incongruent,828.6369717,NA,Incongruent
Castle,0.9794931,en-us,NA,1,202,0.955,1.355,castle,castle,7,0.8934484,0,828.6427481,4,830.7392281,828.6369717,Predictive Locations,obj085,Even_Split,59.95818516,NA,"fort, fortress, tower, citadel, moat, palace, sandcastle, castle",Congruent,831.4891431,NA,Congruent
egg,0.94889677,en-us,NA,1,203,1.05,1.235,egg,skirt,7,1.0177189,0,831.494795,4,833.5908769,831.4891431,Predictive Locations,obj144,Even_Split,59.95818516,NA,"egg holder, holder, egg, skirt",Incongruent,834.3413431,NA,Congruent
baby,0.98762906,en-us,NA,1,204,1.24,1.61,baby,canoe,-7,1.2605302,0,834.346949,4,836.4431268,834.3413431,Predictive Locations,obj017,Even_Split,59.95818516,NA,"infant, baby, canoe",Incongruent,837.6939477,NA,Incongruent
comb,0.73396945,en-us,NA,1,205,0.965,1.175,comb,comb,7,0.8935266,1.2488083,837.6996397,4,839.795708,837.6939477,Predictive Locations,obj106,Even_Split,59.95818516,NA,"brush, comb",Congruent,840.546144,NA,Congruent
yoyo,0.94627696,en-us,NA,1,206,1.595,2.045,yoyo,yoyo,7,1.6138861,0,840.5517294,4,842.7813349,840.546144,Predictive Locations,obj518,Even_Split,59.95818516,NA,"string, toy, yoyo",Congruent,845.8502365,NA,Congruent
rolling pin,0.9440816,en-us,NA,1,207,1.4,1.98,rollingpin,rollingpin,7,1.4151981,0,845.8561486,4,847.9519965,845.8502365,Predictive Locations,obj362,Even_Split,59.95818516,NA,"roller, pin, rollingpin",Congruent,850.603908,NA,Congruent
flag,0.98762906,en-us,NA,1,208,1.125,1.395,flag,flag,7,1.1421663,0,850.609748,4,852.7056557,850.603908,Predictive Locations,obj159,Even_Split,59.95818516,NA,"flag, pennant, banner, flag",Congruent,853.4560992,NA,Congruent
pelican,0.99220014,en-us,NA,1,209,1.32,1.785,pelican,pelican,7,1.2911477,0,853.4617741,4,855.5578801,853.4560992,Predictive Locations,obj309,Even_Split,59.95818516,NA,"seagull, bird, crane, stork, toucan, egret, pelican",Congruent,857.0088457,NA,Congruent
bone,0.92064154,en-us,NA,1,210,1.235,1.59,bone,tie,-7,1.2309594,0,857.0145458,4,859.1106237,857.0088457,Predictive Locations,obj050,Even_Split,59.95818516,NA," bone, tie",Incongruent,860.66166,NA,Incongruent
curtains,0.98762906,en-us,NA,1,211,1.52,1.895,curtains,curtains,7,1.4636275,0,860.6673603,4,862.7634177,860.66166,Predictive Locations,obj120,Even_Split,59.95818516,NA,"blinds, drapes, shades, shutters, window, curtains",Congruent,864.4145509,NA,Congruent
scissors,0.98762906,en-us,NA,1,212,1.2,1.545,scissors,gorilla,-7,1.2220181,0,864.4203077,4,866.5163072,864.4145509,Predictive Locations,obj380,Even_Split,59.95818516,NA,"scissor, clippers, trimmers, scissors, gorilla",Incongruent,867.4669039,NA,Incongruent
envelope,0.98762906,en-us,NA,1,213,1.49,1.995,envelope,barbecue,7,1.5005809,0,867.4725448,4,869.6186928,867.4669039,Predictive Locations,obj146,Even_Split,59.95818516,NA,"mail, letter, envelope, barbecue",Incongruent,872.2705746,NA,Congruent
turtle,0.98775566,en-us,NA,1,214,0.85,1.15,turtle,turtle,7,0.7798643,1.2217175,872.2764273,4,874.37235,872.2705746,Predictive Locations,obj476,Even_Split,59.95818516,NA,"tortoise, terrapin, turtle",Congruent,875.1228144,NA,Congruent
camera,0.98762906,en-us,NA,1,215,1.14,1.53,camera,bottle,-7,1.0762814,0,875.128527,4,877.2245601,875.1228144,Predictive Locations,obj073,Even_Split,59.95818516,NA,"digital camera, lens, camera, bottle",Incongruent,877.9750075,NA,Incongruent
trumpet,0.98762906,en-us,NA,1,216,1.785,2.13,trumpet,dolphin,-7,1.7266933,0,877.9806266,4,880.3436188,877.9750075,Predictive Locations,obj473,Even_Split,59.95818516,NA,"instrument, music, musical instrument, cornet, trombone, horn, clarinet, trumpet, dolphin",Incongruent,882.0948572,NA,Incongruent
monkey,0.98762906,en-us,NA,1,217,1.15,1.71,monkey,spaghetti,7,1.1670162,0,882.100608,4,884.1965966,882.0948572,Predictive Locations,obj266,Even_Split,59.95818516,NA,"ape, baboon, chimpanzee, gorilla, lemur, orangutan, baby monkey, monkey, spaghetti",Incongruent,885.347367,NA,Congruent
NA,NA,NA,NA,1,218,NA,NA,spoon,spoon,7,1.0260892,1.0461808,885.3532028,4,887.4491151,885.347367,Predictive Locations,obj418,Even_Split,59.95818516,NA,"utensil, spoon",Congruent,888.1995546,NA,Congruent
violin,0.98762906,en-us,NA,1,219,1.02,1.56,violin,violin,-7,1.0389699,0,888.2051155,4,890.3186125,888.1995546,Predictive Locations,obj485,Even_Split,59.95818516,NA,"instrument, music, musical instrument, guitar, fiddle, viola, cello, violin",Congruent,891.3686899,NA,Incongruent
Bridge,0.9741601,en-us,NA,1,220,1.44,1.81,bridge,bridge,7,1.4365635,0,891.3745887,4,893.4704117,891.3686899,Predictive Locations,obj062,Even_Split,59.95818516,NA,"Golden Gate Bridge, overpass, bridge",Congruent,895.1215726,NA,Congruent
cup,0.98762906,en-us,NA,1,221,2.015,2.2,trophy,motorcycle,-7,1.534259,0,895.1272841,4,897.3067169,895.1215726,Predictive Locations,obj471,Even_Split,59.95818516,NA,"award, cup, trophy, motorcycle",Incongruent,898.1572373,NA,Incongruent
stove,0.9833367,en-us,NA,1,222,1.33,1.57,washingmachine,frog,-7,1.3116132,0,898.1628901,4,900.2589999,898.1572373,Predictive Locations,obj495,Even_Split,59.95818516,NA,"laundry, laundry machine, washer, wash, laundromat, dryer, drying machine, stove, washingmachine, frog",Incongruent,901.3097005,NA,Incongruent
fire hydrant,0.98019475,en-us,NA,1,223,1.38,1.74,firehydrant,firehydrant,7,1.3688546,0,901.3155125,4,903.4114116,901.3097005,Predictive Locations,obj214,Even_Split,59.95818516,NA,"hydrant, firehydrant",Congruent,904.7623494,NA,Congruent
hamburger,0.9938145,en-us,NA,1,224,1.305,1.865,hamburger,hamburger,7,1.257112,0,904.7681674,4,906.8641066,904.7623494,Predictive Locations,obj192,Even_Split,59.95818516,NA,"patty, hamburger",Congruent,908.014834,NA,Congruent
pen,0.95199955,en-us,NA,1,225,1.37,1.64,pen,table,-7,1.3528267,0,908.020543,4,910.1165992,908.014834,Predictive Locations,obj310,Even_Split,59.95818516,NA,"ballpoint pen, writing utensil, pencil, writing instrument, fountain pen, quill, pen, table",Incongruent,911.2673864,NA,Incongruent
donkey,0.98384726,en-us,NA,1,226,1.43,1.88,donkey,cane,-7,1.4323658,0,911.2730554,4,913.3690835,911.2673864,Predictive Locations,obj131,Even_Split,59.95818516,NA,"horse, mule, pony, donkey, cane",Incongruent,915.22083,NA,Incongruent
cup,0.98762906,en-us,NA,1,227,0.755,0.95,cup,cup,7,0.7711733,1.0950651,915.2265462,4,917.3221311,915.22083,Predictive Locations,obj119,Even_Split,59.95818516,NA,"mug, drink, cup",Congruent,918.0726188,NA,Congruent
vase,0.9243697,en-us,NA,1,228,1.115,1.23,vase,vase,-7,1.1328506,0,918.0786912,4,920.1743633,918.0726188,Predictive Locations,obj483,Even_Split,59.95818516,NA,"jar, pot, urn, container, flowerpot, jug, vaz, vase",Congruent,920.9247884,NA,Incongruent
wood,0.97462624,en-us,NA,1,229,1.815,1.98,log,skeleton,-7,1.8360532,0,920.9388074,4,923.3934741,920.9247884,Predictive Locations,obj253,Even_Split,59.95818516,NA,"wood, timber, chunk, log, skeleton",Incongruent,925.1613921,NA,Incongruent
statue,0.9814255,en-us,NA,1,230,1.19,1.69,statue,statue,7,1.1751528,0,925.1672337,4,927.2631468,925.1613921,Predictive Locations,obj421,Even_Split,59.95818516,NA,"sculpture, mold, bust, marble, statue",Congruent,928.3138185,NA,Congruent
Steam,0.9789059,en-us,NA,1,231,2.11,2.355,smoke,pillow,-7,2.0984456,0,928.3195131,4,931.0327192,928.3138185,Predictive Locations,obj407,Even_Split,59.95818516,NA,"chimney, stack, vent, furnace, chimney stack, smoke shaft, exhaust, pollution, soot, steam, vapor, smoke, pillow",Incongruent,933.0841683,NA,Incongruent
mosquito,0.9811809,en-us,NA,1,232,1.08,1.675,mosquito,mosquito,-7,1.0969238,0,933.0900593,4,935.1859102,933.0841683,Predictive Locations,obj270,Even_Split,59.95818516,NA,"bug, insect, fly, pest, flea, dragonfly, mosquito",Congruent,936.5368142,NA,Incongruent
blimp,0.8534944,en-us,NA,1,233,1.615,1.825,blimp,blimp,-7,1.6201261,0,936.5425294,4,938.7886966,936.5368142,Predictive Locations,obj046,Even_Split,59.95818516,NA,"airship, hot air balloon, blimp",Congruent,940.6399918,NA,Incongruent
bed,0.97132045,en-us,NA,1,234,1.23,1.46,bed,firetruck,-7,1.2441924,0,940.6457929,4,942.7417381,940.6399918,Predictive Locations,obj037,Even_Split,59.95818516,NA," bed, firetruck",Incongruent,943.5922617,NA,Incongruent
moose,0.87880284,en-us,NA,1,235,0.995,1.335,moose,moose,7,0.9875952,1.3985089,943.5979319,4,945.6940059,943.5922617,Predictive Locations,obj268,Even_Split,59.95818516,NA,"elk, deer, moose",Congruent,946.4444669,NA,Congruent
radio,0.98762906,en-us,NA,1,236,1.455,1.875,radio,sink,-7,1.4685402,0,946.4500765,4,948.5629054,946.4444669,Predictive Locations,obj345,Even_Split,59.95818516,NA,"alarm clock, cable, box, cassette, tape, stereo, radio, sink",Incongruent,951.3148686,NA,Incongruent
NA,NA,NA,NA,1,237,NA,NA,key,key,7,1.0137709,1.2137351,951.3207319,4,953.4166807,951.3148686,Predictive Locations,obj225,Even_Split,59.95818516,NA, key,Congruent,954.1670977,NA,Congruent
Sun,0.9847302,en-us,NA,1,238,1.245,1.385,sun,volcano,-7,1.2618512,0,954.1727778,4,956.28549,954.1670977,Predictive Locations,obj431,Even_Split,59.95818516,NA,"sunshine, light, daylight, sun, volcano",Incongruent,957.0359614,NA,Incongruent
sword,0.98762906,en-us,NA,1,239,1.21,1.385,sword,sword,7,1.230007,0,957.0415918,4,959.1377471,957.0359614,Predictive Locations,obj435,Even_Split,59.95818516,NA,"weapon, foil, saber, spear, blade, dagger, sword",Congruent,959.8881417,NA,Congruent
door,0.97805786,en-us,NA,1,240,0.98,1.32,door,door,-7,0.6766617,0.7850458,959.8937832,4,961.9899137,959.8881417,Predictive Locations,obj132,Even_Split,59.95818516,NA, door,Congruent,962.7403659,NA,Incongruent
King,0.98117566,en-us,NA,1,241,1.065,1.295,king,teapot,-7,0.9888753,1.4334175,962.7459055,4,964.8588054,962.7403659,Predictive Locations,obj226,Even_Split,59.95818516,NA,"regal, crown, throne, emperor, monarch, king, teapot",Incongruent,965.6092442,NA,Incongruent
cake,0.9849747,en-us,NA,1,242,1.205,1.37,cake,needle,7,1.1071836,1.3954848,965.6148751,4,967.7109969,965.6092442,Predictive Locations,obj071,Even_Split,59.95818516,NA,"bite, bitten, wedding cake, dessert, eaten, cake, needle",Incongruent,968.4614464,NA,Congruent
anchor,0.9938145,en-us,NA,1,243,1.15,1.59,anchor,anchor,7,1.198163,0,968.4670963,4,970.5798311,968.4614464,Predictive Locations,obj005,Even_Split,59.95818516,NA,"ship, boat, anchor",Congruent,971.3303231,NA,Congruent
tiger,0.9154168,en-us,NA,1,244,0.995,1.425,tiger,tiger,7,0.892724,0,971.3359559,4,973.4320704,971.3303231,Predictive Locations,obj454,Even_Split,59.95818516,NA,"leopard, lion, cheetah, panther, cat, big cat, tiger",Congruent,974.1824983,NA,Congruent
heel,0.9248662,en-us,NA,1,245,1.495,1.735,heel,safetypin,7,1.4445225,0,974.1880947,4,976.2871145,974.1824983,Predictive Locations,obj202,Even_Split,59.95818516,NA,"shoe, high heels, heels, wedge, wedges, platform, dress shoe, foot, heel, safetypin",Incongruent,978.2356415,NA,Congruent
rhinoceros,0.98341155,en-us,NA,1,246,1.315,1.625,rhinoceros,rhinoceros,7,1.2373162,0,978.2413721,4,980.3373971,978.2356415,Predictive Locations,obj353,Even_Split,59.95818516,NA,"rhino, hippo, hippopotamus, rhinoceros",Congruent,981.788384,NA,Congruent
toe,0.9594413,en-us,NA,1,247,1.065,1.435,toe,toe,-7,1.1100152,0,981.7940757,4,983.8901558,981.788384,Predictive Locations,obj457,Even_Split,59.95818516,NA,"big toe, toenail, thumb toe, finger, hand, foot, toe",Congruent,984.640532,NA,Incongruent
NA,NA,NA,NA,1,248,NA,NA,house,house,-7,1.0773379,1.4025409,984.6461398,4,986.7423494,984.640532,Predictive Locations,obj213,Even_Split,59.95818516,NA,"home, building, residence, house",Congruent,987.4927626,NA,Incongruent
wheelchair,0.97965914,en-us,NA,1,249,1.175,1.275,wheelchair,helmet,7,1.2005221,0,987.4983663,4,989.5945321,987.4927626,Predictive Locations,obj505,Even_Split,59.95818516,NA,"scooter, wheelchair, helmet",Incongruent,990.3449829,NA,Congruent
waiter,0.98762906,en-us,NA,1,250,1.48,1.97,waiter,finger,-7,1.5869043,0,990.3506461,4,992.5634898,990.3449829,Predictive Locations,obj489,Even_Split,59.95818516,NA,"server, attendant, steward, waitress, waiter, finger",Incongruent,995.2154088,NA,Incongruent
seal,0.9722539,en-us,NA,1,251,0.945,1.395,seal,seal,7,1.1427667,0,995.2212166,4,997.3338615,995.2154088,Predictive Locations,obj385,Even_Split,59.95818516,NA,"sea lion, otter, walrus, manatee, seal",Congruent,998.0842979,NA,Congruent
Bowl,0.89324224,en-us,NA,1,252,1.085,1.315,bowl,hammer,-7,1.1082761,0,998.0899132,4,1000.186036,998.0842979,Predictive Locations,obj054,Even_Split,59.95818516,NA,"cup, dish, bowl, hammer",Incongruent,1000.936479,NA,Incongruent
talk,0.78053606,en-us,NA,1,253,1.005,1.345,sock,bird,7,1.1676221,1.3683689,1000.942124,4,1003.038251,1000.936479,Predictive Locations,obj411,Even_Split,59.95818516,NA," sock, bird",Incongruent,1003.788689,NA,Congruent
wing,0.96683276,en-us,NA,1,254,1.235,1.485,wing,lobster,-7,1.2660781,0,1003.794408,4,1005.890439,1003.788689,Predictive Locations,obj512,Even_Split,59.95818516,NA,"bird, feather, wing, lobster",Incongruent,1006.640883,NA,Incongruent
ball,0.90706044,en-us,NA,1,255,1.27,1.56,ball,mailbox,7,1.3181714,0,1006.646532,4,1008.742658,1006.640883,Predictive Locations,obj024,Even_Split,59.95818516,NA,"rattle, ball, mailbox",Incongruent,1009.593151,NA,Congruent
giraffe,0.9520855,en-us,NA,1,256,1.425,1.58,giraffe,giraffe,-7,1.399622,0,1009.598936,4,1011.694896,1009.593151,Predictive Locations,obj178,Even_Split,59.95818516,NA, giraffe,Congruent,1012.745587,NA,Incongruent
magnet,0.976972,en-us,NA,1,257,1.225,1.47,magnet,corn,-7,1.2236146,0,1012.751269,4,1014.847339,1012.745587,Predictive Locations,obj254,Even_Split,59.95818516,NA,"magnetic pull, magnet, corn",Incongruent,1015.697863,NA,Incongruent
ladder,0.9938145,en-us,NA,1,258,2.565,2.985,ladder,camel,-7,1.1733816,0,1015.703543,4,1017.799606,1015.697863,Predictive Locations,obj231,Even_Split,59.95818516,NA," ladder, camel",Incongruent,1023.353755,NA,Incongruent
strawberry,0.98062587,en-us,NA,1,259,1.29,1.43,strawberry,doll,-7,1.0392471,0,1023.360158,4,1025.455608,1023.353755,Predictive Locations,obj427,Even_Split,59.95818516,NA,"berry, fruit, seeds, strawberry, doll",Incongruent,1026.205946,NA,Incongruent
mushroom,0.98762906,en-us,NA,1,260,1.1,1.585,mushroom,balcony,7,1.1300615,0,1026.211505,4,1028.307702,1026.205946,Predictive Locations,obj275,Even_Split,59.95818516,NA," mushroom, balcony",Incongruent,1029.358393,NA,Congruent
NA,NA,NA,NA,1,261,NA,NA,mouse,road,-7,1.1455049,0,1029.36406,4,1031.46013,1029.358393,Predictive Locations,obj273,Even_Split,59.95818516,NA,"rat, hamster, mole, mouse, road",Incongruent,1032.210629,NA,Incongruent
NA,NA,NA,NA,1,262,NA,NA,microphone,microphone,-7,NA,NA,1032.216269,4,1035.813518,1032.210629,Predictive Locations,obj261,Even_Split,59.95818516,NA, microphone,Congruent,1036.56393,NA,Incongruent
heart,0.96612597,en-us,NA,1,263,1.255,1.415,heart,heart,7,1.2181256,0,1036.56982,4,1038.666565,1036.56393,Predictive Locations,obj201,Even_Split,59.95818516,NA,"love, valentine, love heart, heart",Congruent,1039.416152,NA,Congruent
telephone,0.98762906,en-us,NA,1,264,1.19,1.8,telephone,telephone,7,1.2293707,0,1039.421833,4,1041.534562,1039.416152,Predictive Locations,obj445,Even_Split,59.95818516,NA,"phone, home phone, house phone, rotary, rotary phone, old phone, dial, call, landline, telephone",Congruent,1097.421833,NA,Congruent
pool,0.9834721,en-us,NA,2,1,NA,NA,pool,nftmt,0,1.1287858,0,84.1841743,1,86.2814794,75.906635,Neutral,obj331,NA,59.95131952,NA," pool, nftmt",Incongruent,87.432215,NA,NA
turtle,0.98762906,en-us,NA,2,2,0.855,1.32,turtle,pqqkp,0,0.832281,1.3895948,87.4378573,1,89.5506357,87.432215,Neutral,obj476,NA,59.95131952,NA,"tortoise, terrapin, turtle, pqqkp",Incongruent,90.3010999,NA,NA
eye,0.87383175,en-us,NA,2,3,0.835,1.225,eye,gbwvg,0,0.8148961,1.4063772,90.3066598,1,92.4028667,90.3010999,Neutral,obj148,NA,59.95131952,NA,"eyeball, pupil, iris, eyelash, eyelashes, vision, eye, gbwvg",Incongruent,93.1532892,NA,NA
lawnmower,0.9938145,en-us,NA,2,4,1.395,2.1,lawnmower,hwkts,0,1.3778861,0,93.1588657,1,95.2550888,93.1532892,Neutral,obj235,NA,59.95131952,NA,"mower, cutter, trimmer, lawnmower, hwkts",Incongruent,113.7191385,NA,NA
acorn,0.98762906,en-us,NA,2,5,1.375,1.875,acorn,nkkwc,0,1.3320332,0,113.7264406,1,115.82095,113.7191385,Neutral,obj002,NA,59.95131952,NA," acorn, nkkwc",Incongruent,124.6775617,NA,NA
girl,0.9794437,en-us,NA,2,6,1.35,1.715,girl,vhfmt,0,1.3163929,0,124.6840583,1,126.7793701,124.6775617,Neutral,obj179,NA,59.95131952,NA,"child, kid, youngster, youth, daughter, minor, girl, vhfmt",Incongruent,129.5313342,NA,NA
jar,0.9752097,en-us,NA,2,7,1.17,1.53,jar,qxvrn,0,1.1115645,0,129.5372892,1,131.6331203,129.5313342,Neutral,obj221,NA,59.95131952,NA,"jug, vase, vessel, bottle, jar, qxvrn",Incongruent,132.9005995,NA,NA
crackers,0.9755956,en-us,NA,2,8,1.825,1.985,crackers,qjqpd,0,1.1679734,1.215695,132.906448,1,135.002381,132.9005995,Neutral,obj114,NA,59.95131952,NA,"saltine, saltines, cookie, cookies, graham cracker, graham crackers, crackers, qjqpd",Incongruent,138.3548006,NA,NA
fish,0.9938145,en-us,NA,2,9,1.065,1.24,fish,bvctc,0,0.8979062,0,138.3606402,1,140.4566119,138.3548006,Neutral,obj157,NA,59.95131952,NA," fish, bvctc",Incongruent,141.2069974,NA,NA
mail,0.9733108,en-us,NA,2,10,1.525,1.99,letter,mbdtk,0,1.4715544,0,141.2126685,1,143.3087988,141.2069974,Neutral,obj240,NA,59.95131952,NA,"mail, note, message, letter, mbdtk",Incongruent,147.0781864,NA,NA
fedora,0.98762906,en-us,NA,2,11,1.735,2.195,hat,ddfsv,0,1.4666771,0,147.0841655,1,149.1822924,147.0781864,Neutral,obj199,NA,59.95131952,NA,"fedora, hat, ddfsv",Incongruent,153.6332417,NA,NA
truck,0.98762906,en-us,NA,2,12,1.33,1.66,truck,bhqqn,0,1.3509285,0,153.6392986,1,155.7350195,153.6332417,Neutral,obj472,NA,59.95131952,NA,"cargo, truck, bhqqn",Incongruent,157.486212,NA,NA
Apple,0.97332084,en-us,NA,2,13,1.155,1.575,apple,gkgdc,0,1.1333836,0,157.4919105,1,159.5879924,157.486212,Neutral,obj009,NA,59.95131952,NA,"fruit, apple, gkgdc",Incongruent,160.9388747,NA,NA
parrot,0.98762906,en-us,NA,2,14,1.395,1.835,parrot,brbcq,0,1.4094209,0,160.9445698,1,163.0406524,160.9388747,Neutral,obj302,NA,59.95131952,NA,"bird, macaw, parakeet, toucan, cockatoo, lovebird, pecan, parrot, brbcq",Incongruent,165.7926165,NA,NA
monkey,0.98762906,en-us,NA,2,15,1.525,2.03,gorilla,sdzbp,0,0.2300685,0.4350959,165.7983873,1,167.8944001,165.7926165,Neutral,obj185,NA,59.95131952,NA,"monkey, ape, baboon, chimpanzee, orangutan, gorilla, sdzbp",Incongruent,171.4469744,NA,NA
firetruck,0.94347167,en-us,NA,2,16,2.675,3.21,firetruck,zcqnj,0,2.5611164,0,171.4527039,1,174.6329213,171.4469744,Neutral,obj156,NA,59.95131952,NA,"fire, burning building, ladder, fire engine, firetruck, zcqnj",Incongruent,178.3856421,NA,NA
shoulder,0.98762906,en-us,NA,2,17,2.235,2.43,shoulder,wzpgz,0,2.0836134,0,178.3918097,1,181.0878601,178.3856421,Neutral,obj394,NA,59.95131952,NA,"bicep, arm, upper arm, body, upper body, shoulder, wzpgz",Incongruent,185.4577743,NA,NA
dentures,0.98762906,en-us,NA,2,18,1.495,2.045,teeth,sjzrm,0,1.392436,0,185.4638843,1,187.5595473,185.4577743,Neutral,obj444,NA,59.95131952,NA,"denture, dentures, fake teeth, molar, molars, gum, gums, dental, teeth, sjzrm",Incongruent,191.6291971,NA,NA
bicycle,0.9938145,en-us,NA,2,19,1.855,2.515,bicycle,tzjqw,0,1.8681428,0,191.6353137,1,194.1312858,191.6291971,Neutral,obj043,NA,59.95131952,NA,"bike, bicycle, tzjqw",Incongruent,198.2009039,NA,NA
box,0.98124427,en-us,NA,2,20,1.06,1.265,box,svnrk,0,1.0259052,1.3451064,198.2071038,1,200.3027267,198.2009039,Neutral,obj056,NA,59.95131952,NA,"package, carton, box, svnrk",Incongruent,201.0531306,NA,NA
feather,0.98762906,en-us,NA,2,21,1.045,1.445,feather,jtcmg,0,1.0161968,0,201.0586958,1,203.1548794,201.0531306,Neutral,obj151,NA,59.95131952,NA,"quill, quill pen, feather, jtcmg",Incongruent,204.0054062,NA,NA
jumprope,0.98121,en-us,NA,2,22,1.525,2.02,jumprope,tvrrs,0,1.5275146,0,204.0110639,1,206.1739131,204.0054062,Neutral,obj223,NA,59.95131952,NA,"rope, whip, jumprope, tvrrs",Incongruent,209.6263986,NA,NA
harp,0.98003674,en-us,NA,2,23,1.215,1.39,harp,phhzz,0,1.0823137,0,209.6324733,1,211.7281878,209.6263986,Neutral,obj198,NA,59.95131952,NA,"angel, wing, harp, phhzz",Incongruent,212.6787585,NA,NA
swing,0.9791149,en-us,NA,2,24,0.965,1.35,swing,swhpx,0,0.9895976,0,212.6843781,1,214.7805357,212.6787585,Neutral,obj434,NA,59.95131952,NA,"swings, playground, swingset, swing, swhpx",Incongruent,215.5309547,NA,NA
chicken,0.98762906,en-us,NA,2,25,1.895,2.095,chicken,hmwdt,0,1.6405403,0,215.5365815,1,217.8161801,215.5309547,Neutral,obj093,NA,59.95131952,NA,"rooster, bird, turkey, hen, poultry, chicken, hmwdt",Incongruent,220.3846945,NA,NA
lock,0.9938145,en-us,NA,2,26,0.84,1.115,lock,bmhkv,0,0.829216,1.1231668,220.3905876,1,222.4864891,220.3846945,Neutral,obj252,NA,59.95131952,NA,"unlock, unlocked, locked, lock, bmhkv",Incongruent,223.2368967,NA,NA
mailbox,0.9789463,en-us,NA,2,27,1.23,1.65,mailbox,qghhv,0,1.1711659,0,223.2424386,1,225.3386984,223.2368967,Neutral,obj255,NA,59.95131952,NA,"mail, letterbox, letters, postbox, mailbox, qghhv",Incongruent,226.9897876,NA,NA
unicycle,0.98762906,en-us,NA,2,28,1.24,2.035,unicycle,wfggj,0,1.1672011,0,226.9954733,1,229.0915748,226.9897876,Neutral,obj481,NA,59.95131952,NA,"bicycle, monocycle, unicycle, wfggj",Incongruent,232.8442964,NA,NA
Mountain,0.98762906,en-us,NA,2,29,1.085,1.315,mountain,mvzsb,0,1.1122021,0,232.8502188,1,234.9460545,232.8442964,Neutral,obj272,NA,59.95131952,NA,"peak, apex, ridge, Matterhorn, mountain, mvzsb",Incongruent,236.6138737,NA,NA
Pizza,0.9826745,en-us,NA,2,30,1.385,1.545,pizza,jthsr,0,1.0535384,0,236.6196069,1,238.7156504,236.6138737,Neutral,obj326,NA,59.95131952,NA,"pizza pie, pizza slices, slices, pizza, jthsr",Incongruent,239.983133,NA,NA
tweezers,0.98762906,en-us,NA,2,31,1.635,2.485,tweezers,zwjzw,0,1.6482479,0,239.9889771,1,242.2683872,239.983133,Neutral,obj477,NA,59.95131952,NA,"tweezer, pliers, tongs, clip, clips, clamp, clamps, tweezers, zwjzw",Incongruent,247.0385744,NA,NA
present,0.98762906,en-us,NA,2,32,1.06,1.23,present,nmnnd,0,1.0499389,0,247.0445851,1,249.1403503,247.0385744,Neutral,obj337,NA,59.95131952,NA,"gift, package, box, present, nmnnd",Incongruent,251.8923169,NA,NA
snake,0.98762906,en-us,NA,2,33,0.78,1.18,snake,rdsgp,0,0.7721635,0,251.8981163,1,253.9940958,251.8923169,Neutral,obj409,NA,59.95131952,NA,"serpent, cobra, python, viper, rattlesnake, copperhead, boa constrictor, snake, rdsgp",Incongruent,254.744511,NA,NA
stoplight,0.98667,en-us,NA,2,34,1.085,1.54,stoplight,hfnqg,0,0.9558011,0,254.7502108,1,256.8472727,254.744511,Neutral,obj466,NA,59.95131952,NA,"light, traffic light, signal, traffic signal, traffic signals, stoplight, hfnqg",Incongruent,258.2138521,NA,NA
net,0.98762906,en-us,NA,2,35,0.885,1.15,net,sfmzq,0,0.8754394,1.3732003,258.2197728,1,260.3156432,258.2138521,Neutral,obj282,NA,59.95131952,NA,"mesh, web, lattice, hoop, fishing net, net, sfmzq",Incongruent,261.0660522,NA,NA
pirate,0.97872764,en-us,NA,2,36,1.12,1.525,pirate,bjgmr,0,1.0780817,0,261.0716551,1,263.1678301,261.0660522,Neutral,obj323,NA,59.95131952,NA,"sailor, raider, buccaneer, pirate ship, man, male, pirate, bjgmr",Incongruent,264.218484,NA,NA
desk,0.98762906,en-us,NA,2,37,1.56,1.725,desk,nfvzh,0,1.532089,0,264.224423,1,266.3869652,264.218484,Neutral,obj124,NA,59.95131952,NA,"cabinet, table, desk, nfvzh",Incongruent,268.3383279,NA,NA
motorcycle,0.9848098,en-us,NA,2,38,1.25,2.035,motorcycle,npgdd,0,1.1668313,0,268.3440918,1,270.4401007,268.3383279,Neutral,obj271,NA,59.95131952,NA,"bike, bicycle, motorbike, moped, scooter, minibike, semi, motorcycle, npgdd",Incongruent,273.6924687,NA,NA
leaf,0.9731555,en-us,NA,2,39,1.055,1.275,leaf,szfjs,0,0.2380523,0.6167349,273.6983257,1,275.7942277,273.6924687,Neutral,obj236,NA,59.95131952,NA,"petal, leaf, szfjs",Incongruent,276.5446546,NA,NA
cup,0.98762906,en-us,NA,2,40,1.78,2.03,cup,jtdxc,0,1.7988531,0,276.550126,1,278.9632992,276.5446546,Neutral,obj119,NA,59.95131952,NA,"mug, drink, cup, jtdxc",Incongruent,281.615227,NA,NA
Genie,0.9938145,en-us,NA,2,41,1.245,1.735,genie,sdbvt,0,1.2293289,0,281.6211952,1,283.7170046,281.615227,Neutral,obj176,NA,59.95131952,NA,"wizard, spirit, genie, sdbvt",Incongruent,286.1687344,NA,NA
wing,0.9831718,en-us,NA,2,42,1.815,2.27,wing,zccbc,0,1.7993447,0,286.1745107,1,288.6041042,286.1687344,Neutral,obj512,NA,59.95131952,NA,"bird, feather, wing, zccbc",Incongruent,292.2734458,NA,NA
rocket,0.9852359,en-us,NA,2,43,0.96,1.115,rocket,smhrn,0,0.9514234,0,292.279387,1,294.3752295,292.2734458,Neutral,obj359,NA,59.95131952,NA,"spaceship, firework, missile, spacecraft, weapon, rocket, smhrn",Incongruent,295.1256364,NA,NA
baby bottle,0.9859059,en-us,NA,2,44,2.525,3.295,bottle,dvknr,0,2.5273515,0,295.1314438,1,298.2949159,295.1256364,Neutral,obj018,NA,59.95131952,NA,"baby bottle, bottle, dvknr",Incongruent,303.4653994,NA,NA
drawer,0.98762906,en-us,NA,2,45,1.665,2.045,drawer,zqfqd,0,1.6016045,0,303.4716808,1,305.6848983,303.4653994,Neutral,obj134,NA,59.95131952,NA,"cabinet, dresser, cupboard, drawer, zqfqd",Incongruent,308.9362851,NA,NA
Grill,0.98762906,en-us,NA,2,46,1.005,1.36,barbecue,jqggd,0,0.9796401,0,308.9423053,1,311.0547557,308.9362851,Neutral,obj029,NA,59.95131952,NA,"grill, griddle, barbecue, jqggd",Incongruent,311.8051575,NA,NA
mirror,0.97520036,en-us,NA,2,47,0.91,1.36,mirror,sqbdz,0,0.8596428,0,311.8107532,1,313.9069508,311.8051575,Neutral,obj263,NA,59.95131952,NA,"reflection, mirror, sqbdz",Incongruent,314.7574393,NA,NA
sled,0.98602736,en-us,NA,2,48,1.02,1.31,sled,smzkw,0,0.839886,0,314.7631962,1,316.8592265,314.7574393,Neutral,obj403,NA,59.95131952,NA,"sleigh, toboggan, sledge, sled, smzkw",Incongruent,317.6096412,NA,NA
rope,0.98762906,en-us,NA,2,49,0.905,1.14,rope,gfpnq,0,0.8609102,0,317.6152242,1,319.7114167,317.6096412,Neutral,obj365,NA,59.95131952,NA,"thread, twine, rope, gfpnq",Incongruent,320.4618366,NA,NA
porcupine,0.98762906,en-us,NA,2,50,NA,NA,porcupine,wqhtn,0,1.1288344,0,320.4674798,1,322.5636209,320.4618366,Neutral,obj334,NA,59.95131952,NA,"hedgehog, possum, echidna, porcupine, wqhtn",Incongruent,326.0161016,NA,NA
nail,0.9938145,en-us,NA,2,51,1.275,1.7,nail,gbnxt,0,1.2558126,0,326.0221711,1,328.1179384,326.0161016,Neutral,obj277,NA,59.95131952,NA,"screw, bolt, nail, gbnxt",Incongruent,330.269369,NA,NA
glasses,0.98762906,en-us,NA,2,52,1.11,1.595,glasses,jhkwc,0,1.0995038,0,330.2752932,1,332.3711896,330.269369,Neutral,obj181,NA,59.95131952,NA," glasses, jhkwc",Incongruent,333.9222122,NA,NA
palm tree,0.98103064,en-us,NA,2,53,0.89,1.445,palmtree,zdthf,0,0.8300605,0,333.9279702,1,336.0239968,333.9222122,Neutral,obj295,NA,59.95131952,NA,"tree, coconut tree, palmtree, zdthf",Incongruent,336.774418,NA,NA
hanger,0.9825157,en-us,NA,2,54,1.05,1.445,hanger,vvxbz,0,0.9531808,0,336.7801097,1,338.876301,336.774418,Neutral,obj197,NA,59.95131952,NA,"clothes rod, wire hanger, hanger, vvxbz",Incongruent,339.7266732,NA,NA
bag,0.9771511,en-us,NA,2,55,0.91,1.25,bag,mchff,0,0.9026763,0,339.7322768,1,341.845144,339.7266732,Neutral,obj022,NA,59.95131952,NA,"lunch bag, bag, mchff",Incongruent,342.5955735,NA,NA
fire hydrant,0.9812996,en-us,NA,2,56,3.495,3.735,firehydrant,dbgfq,0,NA,NA,342.6014655,1,346.1985152,342.5955735,Neutral,obj214,NA,59.95131952,NA,"hydrant, firehydrant, dbgfq",Incongruent,350.1513943,NA,NA
flowers,0.98762906,en-us,NA,2,57,1.735,2.44,wheat,mhjqd,0,1.6323221,0,350.1579515,1,352.4199762,350.1513943,Neutral,obj502,NA,59.95131952,NA,"crops, corn, barley, rye, oats, grain, weeds, flowers, wheat, mhjqd",Incongruent,356.4729339,NA,NA
egg,0.9850035,en-us,NA,2,58,1.355,1.64,egg,kzmqf,0,1.3816902,0,356.4789933,1,358.5767777,356.4729339,Neutral,obj144,NA,59.95131952,NA,"egg holder, holder, egg, kzmqf",Incongruent,360.3259115,NA,NA
giraffe,0.98762906,en-us,NA,2,59,0.8,1.265,giraffe,kqtjs,0,0.8067612,0,360.3316241,1,362.4293076,360.3259115,Neutral,obj178,NA,59.95131952,NA," giraffe, kqtjs",Incongruent,363.3782563,NA,NA
cup,0.98762906,en-us,NA,2,60,1.465,1.745,glass,ccqtv,0,1.4934303,0,363.3839675,1,365.5133889,363.3782563,Neutral,obj511,NA,59.95131952,NA,"wine glass, champagne glass, cup, drink, mug,  glass, ccqtv",Incongruent,370.383662,NA,NA
guitar,0.98762906,en-us,NA,2,61,1.095,1.46,guitar,gdwsq,0,0.8057836,0.8509432,370.3897653,1,372.4854164,370.383662,Neutral,obj188,NA,59.95131952,NA," guitar, gdwsq",Incongruent,373.4360125,NA,NA
boot,0.98762906,en-us,NA,2,62,1.335,1.53,boot,mfmgc,0,1.3475572,0,373.4414951,1,375.5377934,373.4360125,Neutral,obj052,NA,59.95131952,NA,"shoe, cowboy boot, boot, mfmgc",Incongruent,376.788569,NA,NA
seesaw,0.98762906,en-us,NA,2,63,1.255,1.775,seesaw,mwczf,0,1.1001081,0,376.7945395,1,378.8903778,376.788569,Neutral,obj386,NA,59.95131952,NA,"teeter totter, swing, swing set, seesaw, mwczf",Incongruent,381.2420274,NA,NA
banjo,0.98762906,en-us,NA,2,64,1.64,2.215,banjo,mjsgz,0,1.6470822,0,381.2477969,1,383.5272827,381.2420274,Neutral,obj028,NA,59.95131952,NA,"guitar, instrument, banjo, mjsgz",Incongruent,387.7970741,NA,NA
lamp,0.9851177,en-us,NA,2,65,0.9,1.25,lamp,rbtzv,0,0.9030136,0,387.8031251,1,389.8989306,387.7970741,Neutral,obj234,NA,59.95131952,NA,"light, lantern, lamp, rbtzv",Incongruent,390.6493076,NA,NA
match,0.98762906,en-us,NA,2,66,1.09,1.58,match,hfbsn,0,1.1077273,0,390.6548991,1,392.750894,390.6493076,Neutral,obj259,NA,59.95131952,NA,"lighter, match stick, match, hfbsn",Incongruent,394.1019194,NA,NA
peanut,0.9817708,en-us,NA,2,67,0.935,1.26,peanut,ppzsb,0,0.9026661,0,409.501645,2,411.5989317,394.1019194,Neutral,obj306,NA,59.95131952,NA,"nut, kernel, cashew, almond, pistachio, walnut, hazelnut, peanut, ppzsb",Incongruent,414.3675721,NA,NA
Jaguar,0.98762906,en-us,NA,2,68,1.81,2.55,leopard,dcrsd,0,0.1655663,0.5244322,414.3734054,2,416.4693389,414.3675721,Neutral,obj239,NA,59.95131952,NA,"cheetah, tiger, lion, cat, panther, jaguar, leopard, dcrsd",Incongruent,436.8349002,NA,NA
NA,NA,NA,NA,2,69,NA,NA,tripod,kkzxj,0,0.29586,0.6726805,436.8420629,2,438.9366604,436.8349002,Neutral,obj470,NA,59.95131952,NA,"mount, stand, camera stand, support, tripod, kkzxj",Incongruent,439.6872879,NA,NA
drums,0.98762906,en-us,NA,2,70,0.825,1.255,drum,mwvzc,0,0.7777068,0,439.6929294,2,441.7888659,439.6872879,Neutral,obj138,NA,59.95131952,NA,"instrument, drums, drum, mwvzc",Incongruent,442.5392608,NA,NA
ax,0.7861799,en-us,NA,2,71,1.665,2.235,ax,hkpxt,0,0.843581,1.0395904,442.5448489,2,444.6577386,442.5392608,Neutral,obj016,NA,59.95131952,NA,"tomahawk, hatchet, axe, ax, hkpxt",Incongruent,447.7099327,NA,NA
hand,0.96347415,en-us,NA,2,72,1.09,1.61,hand,xfpvv,0,0.1436798,0.4339422,447.7156706,2,449.8117107,447.7099327,Neutral,obj195,NA,59.95131952,NA,"fingers, hand, xfpvv",Incongruent,451.1625978,NA,NA
sword,0.98762906,en-us,NA,2,73,1.155,1.695,sword,vcrhp,0,1.1696615,0,451.1680964,2,453.2643721,451.1625978,Neutral,obj435,NA,59.95131952,NA,"weapon, foil, saber, spear, blade, dagger, sword, vcrhp",Incongruent,455.916255,NA,NA
octopus,0.98762906,en-us,NA,2,74,0.995,1.85,octopus,ffnhf,0,0.1699122,0.7392367,455.9221321,2,458.0180715,455.916255,Neutral,obj286,NA,59.95131952,NA,"tentacles, squid, giant squid, octopus, ffnhf",Incongruent,460.0694615,NA,NA
rockingchair,0.859486,en-us,NA,2,75,1.4,1.82,rockingchair,qbpqd,0,1.3654005,0,460.0750887,2,462.1712505,460.0694615,Neutral,obj360,NA,59.95131952,NA,"chair, armchair, recliner, rocker, rockingchair, qbpqd",Incongruent,467.141588,NA,NA
binoculars,0.98762906,en-us,NA,2,76,0.925,1.72,binoculars,bcrfb,0,0.9579915,0,467.1476844,2,469.2433767,467.141588,Neutral,obj044,NA,59.95131952,NA,"telescope, binoculars, bcrfb",Incongruent,471.6950585,NA,NA
raccoon,0.9742314,en-us,NA,2,77,1.035,1.575,raccoon,htrmk,0,0.5130902,0.5353364,471.7008687,2,473.7968608,471.6950585,Neutral,obj344,NA,59.95131952,NA,"possum, cat, badger, skunk, raccoon, htrmk",Incongruent,476.0484483,NA,NA
anchor,0.9938145,en-us,NA,2,78,1,1.51,anchor,bdkxc,0,0.9325044,0,476.0540563,2,478.1579323,476.0484483,Neutral,obj005,NA,59.95131952,NA,"ship, boat, anchor, bdkxc",Incongruent,479.6011842,NA,NA
Rock,0.9642679,en-us,NA,2,79,3.31,3.62,orange,hfnfh,0,NA,NA,479.6069194,2,483.2040977,479.6011842,Neutral,obj288,NA,59.95131952,NA,"tangerine, grapefruit, clementine, mandarin, peach, apricot, fruit, rock, orange, hfnfh",Incongruent,486.5565234,NA,NA
Castle,0.98762906,en-us,NA,2,80,1.11,1.27,castle,xpmvc,0,1.0863278,0,486.5626801,2,488.6583151,486.5565234,Neutral,obj085,NA,59.95131952,NA,"fort, fortress, tower, citadel, moat, palace, sandcastle, castle, xpmvc",Incongruent,491.1100533,NA,NA
puzzle,0.98762906,en-us,NA,2,81,1.015,1.535,puzzle,zjxqw,0,0.1692319,0.5820973,491.1159349,2,493.2118455,491.1100533,Neutral,obj222,NA,59.95131952,NA,"puzzle pieces, pieces, puzzle, zjxqw",Incongruent,495.1631808,NA,NA
roof,0.9844659,en-us,NA,2,82,1.52,1.785,roof,rdbss,0,1.4722824,0,495.1687618,2,497.2649495,495.1631808,Neutral,obj363,NA,59.95131952,NA,"house, ceiling, shingles, roof, rdbss",Incongruent,500.3338313,NA,NA
toe,0.9693317,en-us,NA,2,83,0.965,1.45,toe,wrtrz,0,0.1692798,0.3668233,500.3397235,2,502.4356194,500.3338313,Neutral,obj457,NA,59.95131952,NA,"big toe, toenail, thumb toe, finger, hand, foot, toe, wrtrz",Incongruent,503.4862681,NA,NA
hair,0.96625376,en-us,NA,2,84,1.05,1.465,hair,pnqfb,0,0.9209308,0,503.4918057,2,505.5880455,503.4862681,Neutral,obj190,NA,59.95131952,NA,"woman, long hair, curly hair, hair, pnqfb",Incongruent,506.7387655,NA,NA
safe,0.98762906,en-us,NA,2,85,1.345,1.72,safe,ffxgw,0,1.1584197,0,506.7443553,2,508.8405588,506.7387655,Neutral,obj370,NA,59.95131952,NA,"lock, lockbox, locker, safety box, safety, safe, ffxgw",Incongruent,512.1929711,NA,NA
toaster,0.98762906,en-us,NA,2,86,1.04,1.725,toaster,zgzcb,0,0.1418742,0.5197225,512.1988561,2,514.2947599,512.1929711,Neutral,obj456,NA,59.95131952,NA,"toaster oven, toaster, zgzcb",Incongruent,516.6464036,NA,NA
asparagus,0.98762906,en-us,NA,2,87,2.39,2.88,asparagus,wnxfx,0,0.2618989,0.6473405,516.6519993,2,518.7482021,516.6464036,Neutral,obj015,NA,59.95131952,NA,"artichoke, asparagus, wnxfx",Incongruent,523.401617,NA,NA
pyramid,0.98762906,en-us,NA,2,88,1.47,1.865,pyramid,wvpvv,0,1.4061665,0,523.4073987,2,525.5033981,523.401617,Neutral,obj341,NA,59.95131952,NA,"Egypt, shrine, tomb, prism, pyramid, wvpvv",Incongruent,529.1560446,NA,NA
couch,0.9864284,en-us,NA,2,89,0.89,1.5,couch,vfxqv,0,0.9308334,0,529.1620606,2,531.257834,529.1560446,Neutral,obj412,NA,59.95131952,NA,"sofa, futon, loveseat, lounge, couch, vfxqv",Incongruent,532.5086343,NA,NA
bug,0.98762906,en-us,NA,2,90,1.415,1.685,ladybug,zvhbz,0,1.3203318,0,532.5143255,2,534.6104344,532.5086343,Neutral,obj233,NA,59.95131952,NA,"beetle, bug, ladybeetle, insect, ladybug, zvhbz",Incongruent,537.5625273,NA,NA
painting,0.98762906,en-us,NA,2,91,1.255,1.47,picture,kmpqc,0,0.1747458,0.4728178,537.5684552,2,539.6643052,537.5625273,Neutral,obj315,NA,59.95131952,NA,"painting, drawing, boat, ship, decor, art, oil panting, picture, kmpqc",Incongruent,542.3161915,NA,NA
rabbit,0.98762906,en-us,NA,2,92,0.66,1.07,rabbit,vbfgb,0,0.6782522,1.1624973,542.3218048,2,544.417985,542.3161915,Neutral,obj343,NA,59.95131952,NA,"bunny, hare, rodent, squirrel, chinchilla, rabbit, vbfgb",Incongruent,545.1683902,NA,NA
tea cup,0.9422636,en-us,NA,2,93,1.965,2.155,teapot,jqtqx,0,1.7768263,0,545.1739537,2,547.5870898,545.1683902,Neutral,obj441,NA,59.95131952,NA,"pot, kettle, tea kettle, pitcher, vase, container, mug, cup, tea, coffee, jug, teapot, jqtqx",Incongruent,549.6551866,NA,NA
donkey,0.9791114,en-us,NA,2,94,1.755,2.245,donkey,vhxbb,0,1.7699902,0,549.6612444,2,552.075865,549.6551866,Neutral,obj131,NA,59.95131952,NA,"horse, mule, pony, donkey, vhxbb",Incongruent,555.9433418,NA,NA
pillar,0.98762906,en-us,NA,2,95,2.245,2.61,pillar,tfvpn,0,2.1942968,0,555.9493805,2,558.7790547,555.9433418,Neutral,obj105,NA,59.95131952,NA,"column, pedestal, pilaster, pillar, tfvpn",Incongruent,563.2323246,NA,NA
kite,0.9841459,en-us,NA,2,96,0.91,1.155,kite,dnhsj,0,0.4459043,0.4671345,563.2385071,2,565.3340684,563.2323246,Neutral,obj227,NA,59.95131952,NA," kite, dnhsj",Incongruent,572.8897752,NA,NA
scorpion,0.98762906,en-us,NA,2,97,1.15,1.545,scorpion,vgnzr,0,0.7752999,0,572.8958118,2,574.9915502,572.8897752,Neutral,obj381,NA,59.95131952,NA,"lobster, arachnid, crustacean, crab, crawfish, scorpion, vgnzr",Incongruent,579.2613597,NA,NA
saw,0.9832264,en-us,NA,2,98,0.87,1.12,saw,qppdd,0,0.7698987,1.3925023,579.2674204,2,581.3631218,579.2613597,Neutral,obj376,NA,59.95131952,NA,"axe, tool, cutter, saw, qppdd",Incongruent,582.1135481,NA,NA
Cannon,0.97516745,en-us,NA,2,99,1.76,2.225,cannon,fxtgw,0,0.6827554,1.0389433,582.1191138,2,584.2152948,582.1135481,Neutral,obj077,NA,59.95131952,NA,"howitzer, artillery, cannon, fxtgw",Incongruent,589.168978,NA,NA
rollerskate,0.98114175,en-us,NA,2,100,0.985,1.69,rollerskate,sjtjr,0,0.9868187,0,589.1748436,2,591.2707818,589.168978,Neutral,obj361,NA,59.95131952,NA,"rollerblade, rollerblades, rollerskates, shoe, rollerskate, sjtjr",Incongruent,594.3229654,NA,NA
briefcase,0.9938145,en-us,NA,2,101,1.04,1.515,suitcase,kxrjh,0,0.1971642,0.4559167,594.328938,2,596.4247353,594.3229654,Neutral,obj430,NA,59.95131952,NA,"bag, briefcase, luggage, attaché case, case, handbag, suitcase, kxrjh",Incongruent,598.276028,NA,NA
crab,0.98762906,en-us,NA,2,102,1.21,1.52,crab,wqpsm,0,1.0413492,1.0573938,598.2816085,2,600.3778377,598.276028,Neutral,obj113,NA,59.95131952,NA,"lobster, crustacean, crab, wqpsm",Incongruent,602.5292821,NA,NA
Barrel,0.96616304,en-us,NA,2,103,0.89,1.405,barrel,cghvg,0,0.161859,0.585175,602.5349742,2,604.6310617,602.5292821,Neutral,obj030,NA,59.95131952,NA," barrel, cghvg",Incongruent,606.3822521,NA,NA
NA,NA,NA,NA,2,104,NA,NA,scale,qkmnc,0,0.710719,0.9702866,606.3878405,2,608.4840367,606.3822521,Neutral,obj378,NA,59.95131952,NA,"weigh, balance, weight, scale, qkmnc",Incongruent,609.2344096,NA,NA
goat,0.98762906,en-us,NA,2,105,0.975,1.195,goat,wsvpr,0,0.9584891,0,609.2399821,2,611.3362355,609.2344096,Neutral,obj184,NA,59.95131952,NA,"sheep, ram, lamb, goat, wsvpr",Incongruent,613.404336,NA,NA
Bowl,0.9721825,en-us,NA,2,106,1.15,1.56,bowl,dxsrt,0,0.1729942,0.4925695,613.4100976,2,615.5060957,613.404336,Neutral,obj054,NA,59.95131952,NA,"cup, dish, bowl, dxsrt",Incongruent,619.459005,NA,NA
hair,0.79689825,en-us,NA,2,107,1.21,1.635,wig,bhvzg,0,1.0751605,0,619.464724,2,621.5607778,619.459005,Neutral,obj508,NA,59.95131952,NA,"mannequin, figure, hairpiece, hair, wig, bhvzg",Incongruent,624.1125885,NA,NA
broom,0.9866191,en-us,NA,2,108,1.03,1.36,broom,jndgb,0,0.1606958,0.8240862,624.1184461,2,626.2329331,624.1125885,Neutral,obj063,NA,59.95131952,NA,"mop, sweeper, broom, jndgb",Incongruent,628.2836657,NA,NA
NA,NA,NA,NA,2,109,NA,NA,saxophone,zdxjn,0,0.196836,0.5221777,628.289256,2,630.3842425,628.2836657,Neutral,obj377,NA,59.95131952,NA,"instrument, music, musical instrument, clarinet, saxophone, zdxjn",Incongruent,631.1346648,NA,NA
house,0.985013,en-us,NA,2,110,0.93,1.445,house,pwnkf,0,0.3934243,0.5337372,631.1401589,2,633.2364555,631.1346648,Neutral,obj213,NA,59.95131952,NA,"home, building, residence, house, pwnkf",Incongruent,634.1870205,NA,NA
pea,0.9491935,en-us,NA,2,111,1.88,2.21,peas,qhgwt,0,0.6649996,0.7442953,634.1925022,2,636.2888431,634.1870205,Neutral,obj308,NA,59.95131952,NA,"beans, peapod, pea, green beans, peas, qhgwt",Incongruent,642.5434645,NA,NA
dress,0.9839605,en-us,NA,2,112,0.98,1.155,dress,xjvtb,0,0.2130522,0.5016397,642.5493779,2,644.6452358,642.5434645,Neutral,obj135,NA,59.95131952,NA,"doll, gown, mannequin, dress, xjvtb",Incongruent,645.3956639,NA,NA
shirt,0.98762906,en-us,NA,2,113,1.86,2.22,shirt,vxfgs,0,1.8622049,0,645.4011119,2,647.8810775,645.3956639,Neutral,obj392,NA,59.95131952,NA,"long sleeve shirt, button down shirt, long sleeves, dress shirt, _jacket, shirt, vxfgs",Incongruent,652.9348053,NA,NA
stereo,0.9868812,en-us,NA,2,114,1.55,2.155,radio,mhgns,0,1.3508675,0,652.9408638,2,655.036574,652.9348053,Neutral,obj345,NA,59.95131952,NA,"alarm clock, cable, box, cassette, tape, stereo, radio, mhgns",Incongruent,660.9909796,NA,NA
coin,0.98762906,en-us,NA,2,115,0.925,1.265,dime,cdpbg,0,0.235765,0.4111024,660.9971351,2,663.0928008,660.9909796,Neutral,obj104,NA,59.95131952,NA,"coin, money, change, gold, dime, cdpbg",Incongruent,664.1434506,NA,NA
wheelchair,0.98762906,en-us,NA,2,116,1.11,1.755,wheelchair,cdbfc,0,0.1635138,0.5531927,664.1489149,2,666.2452071,664.1434506,Neutral,obj505,NA,59.95131952,NA,"scooter, wheelchair, cdbfc",Incongruent,675.9025176,NA,NA
fishtank,0.9450315,en-us,NA,2,117,0.985,1.505,fishtank,jkzsc,0,0.1433604,0.349347,675.9087262,2,678.0042826,675.9025176,Neutral,obj010,NA,59.95131952,NA,"fish, aquarium, tank, fishtank, jkzsc",Incongruent,679.3551627,NA,NA
violin,0.98762906,en-us,NA,2,118,1.03,1.53,violin,hmhrr,0,0.8007631,0.8821654,679.3606395,2,681.4569552,679.3551627,Neutral,obj485,NA,59.95131952,NA,"instrument, music, musical instrument, guitar, fiddle, viola, cello, violin, hmhrr",Incongruent,684.3089919,NA,NA
tiger,0.9824884,en-us,NA,2,119,1.16,1.7,tiger,xxfmp,0,0.1756946,0.388915,684.3146774,2,686.4107747,684.3089919,Neutral,obj454,NA,59.95131952,NA,"leopard, lion, cheetah, panther, cat, big cat, tiger, xxfmp",Incongruent,691.3644317,NA,NA
King,0.98762906,en-us,NA,2,120,0.78,1.21,king,ngcrc,0,0.8281427,0,691.3705796,2,693.4661973,691.3644317,Neutral,obj226,NA,59.95131952,NA,"regal, crown, throne, emperor, monarch, king, ngcrc",Incongruent,694.7336965,NA,NA
turkey,0.98762906,en-us,NA,2,121,1.18,1.4,turkey,knhnh,0,0.8597801,0,694.7394517,2,696.8362539,694.7336965,Neutral,obj475,NA,59.95131952,NA,"bird, goose, ham, rooster, chicken, poultry, turkey, knhnh",Incongruent,697.5858636,NA,NA
drill,0.98762906,en-us,NA,2,122,1.235,1.685,drill,nqttp,0,1.1705467,0,697.5915474,2,699.687678,697.5858636,Neutral,obj137,NA,59.95131952,NA,"driver, screwdriver, drill, nqttp",Incongruent,703.640569,NA,NA
hose,0.9790987,en-us,NA,2,123,1.07,1.615,hose,ngfhc,0,0.1750443,0.3420844,703.6466364,2,705.7423473,703.640569,Neutral,obj212,NA,59.95131952,NA,"water hose, snake, hose, ngfhc",Incongruent,707.2933836,NA,NA
lipstick,0.98762906,en-us,NA,2,124,1.355,1.515,lipstick,pczrm,0,0.5373838,0,707.2988944,2,709.3951585,707.2933836,Neutral,obj248,NA,59.95131952,NA," lipstick, pczrm",Incongruent,713.5481894,NA,NA
steering wheel,0.9958763,en-us,NA,2,125,1.325,2.065,steeringwheel,hxfmf,0,1.1843756,0,713.554153,2,715.6499786,713.5481894,Neutral,obj422,NA,59.95131952,NA,"wheel, steeringwheel, hxfmf",Incongruent,731.4286486,NA,NA
closet,0.98762906,en-us,NA,2,126,1.315,1.825,closet,wtsmt,0,0.4736874,0.5513113,731.4359413,2,733.5317107,731.4286486,Neutral,obj494,NA,59.95131952,NA,"wardrobe, dresser, cabinet, cupboard, closet, wtsmt",Incongruent,737.6834721,NA,NA
tie,0.97852933,en-us,NA,2,127,0.97,1.325,tie,kmqjj,0,0.9015001,0,737.6891801,2,739.7963866,737.6834721,Neutral,obj453,NA,59.95131952,NA,"knot, collared shirt, business attire, attire, collar, stripe, striped, stripes, striped tie, tie, kmqjj",Incongruent,740.5356749,NA,NA
fireman,0.9785886,en-us,NA,2,128,1.385,1.86,fireman,dbmtn,0,1.1715719,0,740.5412382,2,742.6402342,740.5356749,Neutral,obj155,NA,59.95131952,NA,"man, firefighter, fireman, dbmtn",Incongruent,753.2955131,NA,NA
glove,0.98762906,en-us,NA,2,129,1.045,1.385,glove,twmxg,0,1.0184144,0,753.3024756,2,755.3973015,753.2955131,Neutral,obj183,NA,59.95131952,NA,"mitt, hand, glove, twmxg",Incongruent,757.3486393,NA,NA
bug,0.97590685,en-us,NA,2,130,0.845,1.09,bug,rphnh,0,0.8681499,1.3431664,757.3544333,2,759.4522071,757.3486393,Neutral,obj039,NA,59.95131952,NA,"beetle, bug, rphnh",Incongruent,760.3009146,NA,NA
ant,0.9509526,en-us,NA,2,131,1.205,1.495,ant,dwnzb,0,1.1989648,0,760.3064879,2,762.4193746,760.3009146,Neutral,obj006,NA,59.95131952,NA,"insect, ant, dwnzb",Incongruent,763.5701072,NA,NA
hug,0.78259164,en-us,NA,2,132,1.235,1.535,hoof,vvrbx,0,1.2039715,0,763.5757851,2,765.6721275,763.5701072,Neutral,obj209,NA,59.95131952,NA,"foot, heel, paw, hoove, hoof, vvrbx",Incongruent,767.5231463,NA,NA
elephant,0.98762906,en-us,NA,2,133,0.91,1.365,elephant,jpnbq,0,0.871528,0,783.4733527,3,785.5705535,767.5231463,Neutral,obj145,NA,59.95131952,NA," elephant, jpnbq",Incongruent,786.7212714,NA,NA
statue,0.98762906,en-us,NA,2,134,1.225,1.705,statue,xvhms,0,1.132861,0,786.7269972,3,788.8230731,786.7212714,Neutral,obj421,NA,59.95131952,NA,"sculpture, mold, bust, marble, statue, xvhms",Incongruent,791.5750215,NA,NA
woman,0.97041583,en-us,NA,2,135,1.74,2.13,woman,nvznq,0,0.5326228,0.7626407,791.5808943,3,793.6769115,791.5750215,Neutral,obj515,NA,59.95131952,NA,"female, woman, nvznq",Incongruent,797.0292286,NA,NA
racket,0.98505485,en-us,NA,2,136,1.08,1.235,tennisracket,fxfrp,0,1.0513849,0,797.0349885,3,799.1310068,797.0292286,Neutral,obj448,NA,59.95131952,NA,"racket, tennis, squash, racket ball, tennisracket, fxfrp",Incongruent,800.2817532,NA,NA
sweatshirt,0.98762906,en-us,NA,2,137,1.495,1.935,sweater,sjzvn,0,1.4081832,0,800.2873792,3,802.3847762,800.2817532,Neutral,obj433,NA,59.95131952,NA,"shirt, long sleeve shirt, sweatshirt, pullover, jacket, sweater, sjzvn",Incongruent,805.2355619,NA,NA
doll,0.98102975,en-us,NA,2,138,1.76,2.16,doll,cxqrn,0,1.8057679,0,805.2414322,3,807.6709248,805.2355619,Neutral,obj129,NA,59.95131952,NA,"puppet, figurine, doll, cxqrn",Incongruent,810.7231226,NA,NA
blimp,0.98762906,en-us,NA,2,139,1.11,1.38,blimp,zdbqk,0,1.1418909,0,810.7290823,3,812.8248976,810.7231226,Neutral,obj046,NA,59.95131952,NA,"airship, hot air balloon, blimp, zdbqk",Incongruent,813.5752936,NA,NA
canoe,0.98762906,en-us,NA,2,140,1.22,1.57,canoe,jnfzk,0,1.1739753,0,813.5809141,3,815.6770937,813.5752936,Neutral,obj078,NA,59.95131952,NA,"boat, kayak, dinghy, canoe, jnfzk",Incongruent,817.3282094,NA,NA
ship,0.98762906,en-us,NA,2,141,0.73,0.98,boat,jhcpw,0,0.7544787,0,817.333912,3,819.4300204,817.3282094,Neutral,obj391,NA,59.95131952,NA,"ship, Titanic, vessel, yacht, barge, boat, jhcpw",Incongruent,820.1804704,NA,NA
helmet,0.98762906,en-us,NA,2,142,0.715,1.175,helmet,kvwxb,0,0.8676529,1.2841761,820.1864905,3,822.2821916,820.1804704,Neutral,obj204,NA,59.95131952,NA,"hard hat, helmet, kvwxb",Incongruent,823.0326168,NA,NA
plate,0.98762906,en-us,NA,2,143,0.87,1.06,plate,nffmz,0,0.7995377,1.3009051,823.0381765,3,825.1343792,823.0326168,Neutral,obj327,NA,59.95131952,NA,"setting, dish, platter, table setting, utensils, set, plate, nffmz",Incongruent,825.8848033,NA,NA
doll,0.98124135,en-us,NA,2,144,2.115,2.505,knight,kcgjr,0,1.6787443,0,825.8903365,3,828.1867566,825.8848033,Neutral,obj229,NA,59.95131952,NA,"horse, cavalier, doll, knight, kcgjr",Incongruent,830.9387118,NA,NA
razor,0.9664004,en-us,NA,2,145,1.865,2.36,razor,nfgjv,0,1.8559618,0,830.9444789,3,833.4421526,830.9387118,Neutral,obj350,NA,59.95131952,NA,"spaceship, blade, razorblade, shaving, shaver, _windshieldwiper, razor, nfgjv",Incongruent,837.3102853,NA,NA
bread,0.98762906,en-us,NA,2,146,0.865,1.09,bread,mvdkw,0,0.8740166,1.3682125,837.3163181,3,839.4120626,837.3102853,Neutral,obj060,NA,59.95131952,NA,"loaf, toast, bread, mvdkw",Incongruent,840.1624541,NA,NA
vase,0.808885,en-us,NA,2,147,0.98,1.555,vase,schnz,0,1.0251563,0,840.1679817,3,842.2809694,840.1624541,Neutral,obj483,NA,59.95131952,NA,"jar, pot, urn, container, flowerpot, jug, vaz, vase, schnz",Incongruent,843.1316325,NA,NA
arm,0.98095506,en-us,NA,2,148,1.09,1.54,arm,wgbkq,0,1.1342566,0,843.1374199,3,845.2332211,843.1316325,Neutral,obj011,NA,59.95131952,NA,"forearm, hand, body, arm, wgbkq",Incongruent,846.7842542,NA,NA
trumpet,0.98762906,en-us,NA,2,149,1.035,1.375,trumpet,knzgm,0,0.9814632,0,846.7899646,3,848.8860575,846.7842542,Neutral,obj473,NA,59.95131952,NA,"instrument, music, musical instrument, cornet, trombone, horn, clarinet, trumpet, knzgm",Incongruent,850.0367784,NA,NA
flashlight,0.9938145,en-us,NA,2,150,0.845,1.345,flashlight,wnrhp,0,0.8673347,0,850.0425994,3,852.1385352,850.0367784,Neutral,obj160,NA,59.95131952,NA,"spotlight, light, flashlight, wnrhp",Incongruent,852.8889358,NA,NA
key,0.9634565,en-us,NA,2,151,0.96,1.335,key,fndpq,0,1.0149648,0,852.8945588,3,854.9929245,852.8889358,Neutral,obj225,NA,59.95131952,NA," key, fndpq",Incongruent,855.7411609,NA,NA
nurse,0.98762906,en-us,NA,2,152,0.9,1.18,nurse,qwjxv,0,0.924379,0,855.7467974,3,857.8429446,855.7411609,Neutral,obj284,NA,59.95131952,NA,"woman, female, adult, nurse, qwjxv",Incongruent,858.5933571,NA,NA
pot,0.980314,en-us,NA,2,153,0.82,1.025,pot,qdphw,0,0.7711404,1.1351397,858.5989859,3,860.6951433,858.5933571,Neutral,obj335,NA,59.95131952,NA,"bowl, bucket, kettle, pan, container, canister, pot, qdphw",Incongruent,861.4455519,NA,NA
dentist,0.98762906,en-us,NA,2,154,1.19,1.6,dentist,cdpdc,0,1.2227577,0,861.4511221,3,863.5473535,861.4455519,Neutral,obj122,NA,59.95131952,NA,"orthodontist, oral surgeon, doctor, patient, feeding, dentist, cdpdc",Incongruent,865.4152998,NA,NA
skeleton,0.9816127,en-us,NA,2,155,0.85,1.43,skeleton,vtwnr,0,0.7127573,0,865.4211327,3,867.5170609,865.4152998,Neutral,obj399,NA,59.95131952,NA,"bones, bone, dead, cadaver, body, dead body, skeleton, vtwnr",Incongruent,868.4676588,NA,NA
pin,0.8892049,en-us,NA,2,156,2.38,2.795,safetypin,npfrk,0,2.4372505,0,868.4734566,3,871.5368357,868.4676588,Neutral,obj371,NA,59.95131952,NA,"pin, clip, bobby pin, safetypin, npfrk",Incongruent,874.2053916,NA,NA
Soldier,0.9753125,en-us,NA,2,157,1.54,2.135,soldier,qfxfz,0,1.4309737,0,874.2114255,3,876.3071681,874.2053916,Neutral,obj413,NA,59.95131952,NA,"fighter, guard, officer, trooper, army, marine, soldier, qfxfz",Incongruent,880.6603943,NA,NA
man,0.98808956,en-us,NA,2,158,1.07,1.67,man,fgghj,0,1.0169599,0,880.6667549,3,882.7621617,880.6603943,Neutral,obj256,NA,59.95131952,NA,"male, adult, businessman, man, fgghj",Incongruent,884.6134182,NA,NA
bear,0.96476746,en-us,NA,2,159,0.795,1.24,bear,gfzcv,0,0.8618919,0,884.6192652,3,886.7151978,884.6134182,Neutral,obj034,NA,59.95131952,NA,"grizzly, bear, gfzcv",Incongruent,887.4656265,NA,NA
coat,0.9832539,en-us,NA,2,160,1.245,1.415,coat,hcgzt,0,1.1938366,0,887.471506,3,889.5674057,887.4656265,Neutral,obj103,NA,59.95131952,NA,"jacket, cloak, overcoat, coat, hcgzt",Incongruent,890.3178336,NA,NA
onion,0.98762906,en-us,NA,2,161,1.38,1.87,onion,hhgsm,0,1.4365599,0,890.3235002,3,892.4196044,890.3178336,Neutral,obj287,NA,59.95131952,NA,"garlic, shallot, scallion, onion, hhgsm",Incongruent,895.8720981,NA,NA
vacuum,0.98762906,en-us,NA,2,162,1.96,2.505,vacuum,xsqnd,0,1.9564523,0,895.8780247,3,898.4575904,895.8720981,Neutral,obj482,NA,59.95131952,NA,"mop, cleaner, vacuum, xsqnd",Incongruent,901.4097058,NA,NA
plane,0.9938145,en-us,NA,2,163,0.73,1.155,airplane,pxzhp,0,0.6783661,1.3095561,901.4157388,3,903.5114828,901.4097058,Neutral,obj003,NA,59.95131952,NA,"jet, plane, jetplane, airliner, aircraft, airplane, pxzhp",Incongruent,904.261897,NA,NA
camera,0.98762906,en-us,NA,2,164,1.04,1.625,camera,hdzmx,0,1.1046914,0,904.2675248,3,906.3799264,904.261897,Neutral,obj073,NA,59.95131952,NA,"digital camera, lens, camera, hdzmx",Incongruent,908.0314738,NA,NA
tent,0.9820591,en-us,NA,2,165,0.845,1.175,tent,qbqfr,0,0.8948898,1.4322131,908.0372542,3,910.1341057,908.0314738,Neutral,obj449,NA,59.95131952,NA,"yurt, camp, hut, wigwam, tent, qbqfr",Incongruent,910.8836717,NA,NA
